File: combined_data.csv
,REFERENCE: tag,REFERENCE: doi,FORMULA,PROPERTY: Type of phases,PROPERTY: Single/Multiphase,PROPERTY: synthesis method,PROPERTY: grain size ($\mu$m),PROPERTY: ROM Density (g/cm$^3$),PROPERTY: HV,PROPERTY: Type of test,PROPERTY: Test temperature ($^\circ$C),PROPERTY: YS (MPa),PROPERTY: UTS (MPa),PROPERTY: Elongation (%),PROPERTY: Elongation plastic (%),PROPERTY: ROM Young modulus (GPa),PROPERTY: Exp. Young modulus (GPa),PROPERTY: O content (wppm),PROPERTY: N content (wppm),PROPERTY: C content (wppm),REFERENCE: comment,Internal Reference #,Original DOI,PROPERTY: Exp. Density (g/cm$^3$),Unnamed: 22,IDENTIFIER: Reference ID
0,4,10.1016/j.jmmm.2014.07.023,Al0.25CoFeNi,FCC,S,AC,,7.9,138.0,C,25.0,158.0,,,,196.0,,,,,,,,,,27
1,4,10.1016/j.jmmm.2014.07.023,Al0.5CoFeNi,FCC+BCC,M,AC,,7.4,212.0,C,25.0,346.0,,,,187.0,,,,,,,,,,27
2,4,10.1016/j.jmmm.2014.07.023,Al0.75CoFeNi,FCC+BCC,M,AC,,7.0,385.0,C,25.0,794.0,,,,179.0,,,,,,,,,,27
3,4,10.1016/j.jmmm.2014.07.023,AlCoFeNi,BCC,S,AC,,6.6,456.0,C,25.0,964.0,,,,173.0,,,,,,,,,,27
4,4,10.1016/j.jmmm.2014.07.023,CoFeNi,FCC,S,AC,,8.5,125.0,C,25.0,204.0,,,,207.0,,,,,,,,,,27
5,4,10.1016/j.jmmm.2014.07.023,CoFeNi,FCC,S,AC,,8.5,125.0,C,25.0,209.0,,,,207.0,,,,,,,,,,27
6,4,10.1016/j.jmmm.2014.07.023,CoFeNiSi0.25,FCC,S,AC,,7.7,149.0,C,25.0,196.0,,,,194.0,,,,,,,,,,27
7,4,10.1016/j.jmmm.2014.07.023,CoFeNiSi0.5,FCC+Ni3Si,M,AC,,7.1,287.0,C,25.0,476.0,,,,,,,,,,,,,,27
8,4,10.1016/j.jmmm.2014.07.023,CoFeNiSi0.75,FCC+Ni3Si,M,AC,,6.6,570.0,C,25.0,1301.0,,,,,,,,,,,,,,27
9,5,10.1016/j.actamat.2014.08.026,CoCrFeNi,FCC,S,CR,24,8.2,,T,25.0,274.0,708.0,39,,225.0,,,,,elongation is total,,,,,37
10,5,10.1016/j.actamat.2014.08.026,CoCrMnNi,FCC,S,CR,36,8.1,,T,25.0,282.0,694.0,44,,222.0,,,,,elongation is total,,,,,37
11,5,10.1016/j.actamat.2014.08.026,CoCrNi,FCC,S,CR,41,8.3,,T,25.0,300.0,860.0,60,,229.0,,,,,elongation is total,,,,,37
12,5,10.1016/j.actamat.2014.08.026,CoFeMnNi,FCC,S,CR,48,8.2,,T,25.0,170.0,550.0,41,,205.0,,,,,elongation is total,,,,,37
13,5,10.1016/j.actamat.2014.08.026,CoFeNi,FCC,S,CR,28,8.5,,T,25.0,211.0,513.0,31,,207.0,,,,,elongation is total,,,,,37
14,5,10.1016/j.actamat.2014.08.026,CoMnNi,FCC,S,CR,32,8.4,,T,25.0,231.0,653.0,38,,202.0,,,,,elongation is total,,,,,37
15,5,10.1016/j.actamat.2014.08.026,FeMnNi,FCC,S,CR,30,8.1,,T,25.0,221.0,602.0,36,,203.0,,,,,elongation is total,,,,,37
16,6,10.1016/j.intermet.2015.01.004,CoCrFeNb0.103Ni,FCC+Laves (C14),M,AC,150-200,8.2,,T,25.0,318.0,622.0,19,,,,,,,all YS recorded as +1 MPa,,,,,46
17,6,10.1016/j.intermet.2015.01.004,CoCrFeNb0.155Ni,FCC+Laves (C14),M,AC,150-200,8.2,,T,25.0,322.0,744.0,23,,,,,,,all YS recorded as +1 MPa,,,,,46
18,6,10.1016/j.intermet.2015.01.004,CoCrFeNb0.206Ni,FCC+Laves (C14),M,AC,150-200,8.2,,T,25.0,403.0,807.0,9,,,,,,,all YS recorded as +1 MPa,,,,,46
19,6,10.1016/j.intermet.2015.01.004,CoCrFeNb0.309Ni,FCC+Laves (C14),M,AC,150-200,8.2,,T,25.0,479.0,879.0,4,,,,,,,all YS recorded as +1 MPa,,,,,46
20,6,10.1016/j.intermet.2015.01.004,CoCrFeNb0.412Ni,FCC+Laves (C14),M,AC,150-200,8.2,,T,25.0,638.0,1004.0,1,,,,,,,all YS recorded as +1 MPa,,,,,46
21,6,10.1016/j.intermet.2015.01.004,CoCrFeNi,FCC,S,AC,150-200,8.2,,T,25.0,148.0,413.0,48,,225.0,,,,,all YS recorded as +1 MPa,,,,,46
22,7,10.1016/j.jallcom.2009.08.090,Al0.25CoCrFeNi,FCC,S,A,,7.7,110.0,,25.0,,,,,216.0,,,,,,,,,,54
23,7,10.1016/j.jallcom.2009.08.090,Al0.25CoCrFeNi,FCC,S,A,,7.7,113.0,,25.0,,,,,216.0,,,,,,,,,,54
24,7,10.1016/j.jallcom.2009.08.090,Al0.375CoCrFeNi,FCC,S,A,,7.5,131.0,,25.0,,,,,211.0,,,,,,,,,,54
25,7,10.1016/j.jallcom.2009.08.090,Al0.375CoCrFeNi,FCC,S,A,,7.5,196.0,,25.0,,,,,211.0,,,,,,,,,,54
26,7,10.1016/j.jallcom.2009.08.090,Al0.5CoCrFeNi,FCC+BCC,M,A,,7.3,159.0,,25.0,,,,,208.0,,,,,,,,,,54
27,7,10.1016/j.jallcom.2009.08.090,Al0.5CoCrFeNi,FCC+BCC,M,A,,7.3,209.0,,25.0,,,,,208.0,,,,,,,,,,54
28,7,10.1016/j.jallcom.2009.08.090,Al0.75CoCrFeNi,FCC+BCC,M,A,,7.0,388.0,,25.0,,,,,200.0,,,,,,,,,,54
29,7,10.1016/j.jallcom.2009.08.090,Al0.75CoCrFeNi,FCC+BCC,M,A,,7.0,280.0,,25.0,,,,,200.0,,,,,,,,,,54
30,7,10.1016/j.jallcom.2009.08.090,Al0.875CoCrFeNi,BCC,S,A,,6.9,538.0,,25.0,,,,,197.0,,,,,,,,,,54
31,7,10.1016/j.jallcom.2009.08.090,Al0.875CoCrFeNi,FCC+BCC,M,A,,6.9,361.0,,25.0,,,,,197.0,,,,,,,,,,54
32,7,10.1016/j.jallcom.2009.08.090,Al1.25CoCrFeNi,BCC,S,A,,6.5,487.0,,25.0,,,,,188.0,,,,,,,,,,54
33,7,10.1016/j.jallcom.2009.08.090,Al1.25CoCrFeNi,BCC,S,A,,6.5,499.0,,25.0,,,,,188.0,,,,,,,,,,54
34,7,10.1016/j.jallcom.2009.08.090,Al1.5CoCrFeNi,BCC,S,A,,6.2,484.0,,25.0,,,,,183.0,,,,,,,,,,54
35,7,10.1016/j.jallcom.2009.08.090,Al1.5CoCrFeNi,BCC,S,A,,6.2,517.0,,25.0,,,,,183.0,,,,,,,,,,54
36,7,10.1016/j.jallcom.2009.08.090,Al2CoCrFeNi,BCC,S,A,,5.9,509.0,,25.0,,,,,173.0,,,,,,,,,,54
37,7,10.1016/j.jallcom.2009.08.090,Al2CoCrFeNi,BCC,S,A,,5.9,512.0,,25.0,,,,,173.0,,,,,,,,,,54
38,7,10.1016/j.jallcom.2009.08.090,AlCoCrFeNi,BCC,S,A,,6.7,484.0,,25.0,,,,,194.0,,,,,,,,,,54
39,7,10.1016/j.jallcom.2009.08.090,AlCoCrFeNi,FCC+BCC,M,A,,6.7,433.0,,25.0,,,,,194.0,,,,,,,,,,54
40,7,10.1016/j.jallcom.2009.08.090,CoCrFeNi,FCC,S,A,,8.2,116.0,,25.0,,,,,225.0,,,,,,,,,,54
41,7,10.1016/j.jallcom.2009.08.090,CoCrFeNi,FCC,S,A,,8.2,113.0,,25.0,,,,,225.0,,,,,,,,,,54
42,8,10.1007/s11837-013-0753-6,Al0.5CoCrFeMo0.5Ni,FCC+Sigma,M,AC,,7.7,425.0,,25.0,,,,,,,,,,,,,,,63
43,8,10.1007/s11837-013-0753-6,Al1.5CoCrFeMo0.5Ni,B2+Sigma,M,AC,,6.6,655.0,,25.0,,,,,,,,,,,,,,,63
44,8,10.1007/s11837-013-0753-6,Al2CoCrFeMo0.5Ni,BCC + B2,S,AC,,6.3,605.0,,25.0,,,,,185.0,,,,,,,,,,63
45,8,10.1007/s11837-013-0753-6,AlCoCrFeMo0.5Ni,B2+Sigma,M,AC,,7.1,715.0,,25.0,,,,,,,,,,,,,,,63
46,8,10.1007/s11837-013-0753-6,CoCrFeMo0.5Ni,FCC+Sigma,M,AC,,8.5,210.0,,25.0,,,,,,,,,,,,,,,63
47,9,10.1016/j.msea.2008.12.053,Al0.5CoCrFeNiTi,BCC+Laves,M,AC,,6.6,,C,25.0,,1600.0,,10.0,,107.0,,,,elongation is plastic ,,,,,66
48,9,10.1016/j.msea.2008.12.053,Al1.5CoCrFeNiTi,BCC + BCC,S,AC,,5.9,,C,25.0,,2110.0,,10.0,,133.0,,,,elongation is plastic ,,,,,66
49,9,10.1016/j.msea.2008.12.053,Al2CoCrFeNiTi,BCC + BCC,S,AC,,5.6,643.0,C,25.0,,1030.0,,5.0,,94.0,,,,elongation is plastic ,,,,,66
50,9,10.1016/j.msea.2008.12.053,AlCoCrFeNiTi,BCC+Laves,M,AC,0.1-0.2,6.2,,C,25.0,,2280.0,,6.0,,148.0,,,,elongation is plastic ,,,,,66
51,9,10.1016/j.msea.2008.12.053,CoCrFeNiTi,FCC,S,AC,,7.2,,C,25.0,,2020.0,,9.0,,135.0,,,,elongation is plastic ,,,,,66
52,10,10.1016/j.actamat.2011.06.041,Al0.2Co1.5CrFeNi1.5Ti,FCC+Ni3Ti,M,A,,7.2,717.0,,25.0,,,,,,,,,,,,,,,1
53,10,10.1016/j.actamat.2011.06.041,Al0.2Co1.5CrFeNi1.5Ti0.5,FCC,S,A,,7.6,487.0,,25.0,,,,,206.0,,,,,,,,,,1
54,10,10.1016/j.actamat.2011.06.041,Co1.5CrFeNi1.5Ti,FCC+Ni3Ti,M,A,,7.4,654.0,,25.0,,,,,,,,,,,,,,,1
55,10,10.1016/j.actamat.2011.06.041,Co1.5CrFeNi1.5Ti0.5,FCC ,S,A,,7.8,509.0,,25.0,,,,,211.0,,,,,,,,,,1
56,11,10.1016/j.matdes.2013.04.061,Al0.7Co0.3CrFeNi,FCC+BCC+B2,M,SPS,,6.8,624.0,C,25.0,2033.0,2635.0,8,,,,,,,labeled as plastic but is total,,,,,2
57,12,10.1016/C2013-0-14235-3,Al0.875CoCrFeNi,FCC+BCC,M,,,6.9,,,25.0,,,,,197.0,,,,,,,,,,3
58,13,10.1016/j.jallcom.2008.07.124,Al1.5CoCrFeNi,BCC,S,AC,,6.2,402.0,,25.0,,,,,183.0,,,,,,,,,,4
59,13,10.1016/j.jallcom.2008.07.124,Al2.5CoCrFeNi,BCC,S,AC,,5.6,487.0,,25.0,,,,,165.0,,,,,,,,,,4
60,13,10.1016/j.jallcom.2008.07.124,Al2CoCrFeNi,BCC,S,AC,,5.9,432.0,,25.0,,,,,173.0,,,,,,,,,,4
61,13,10.1016/j.jallcom.2008.07.124,Al3CoCrFeNi,BCC,S,AC,,5.3,506.0,,25.0,,,,,158.0,,,,,,,,,,4
62,13,10.1016/j.jallcom.2008.07.124,AlCoCrFeNi,BCC,S,AC,,6.7,395.0,,25.0,,,,,194.0,,,,,,,,,,4
63,13,10.1016/j.jallcom.2008.07.124,AlCrCuFeNi,FCC+BCC,M,AC,,6.8,342.0,,25.0,,,,,178.0,,,,,,,,,,4
64,13,10.1016/j.jallcom.2008.07.124,CoCrCuFeNi,FCC,S,AC,,8.3,286.0,,25.0,,,,,206.0,,,,,,,,,,4
65,13,10.1016/j.jallcom.2008.07.124,CrCuFeMnNi,FCC+BCC,M,AC,,8.1,296.0,,25.0,,,,,204.0,,,,,,,,,,4
66,13,10.1016/j.jallcom.2008.07.124,CrCuFeMoNi,FCC,S,AC,,8.7,263.0,,25.0,,,,,230.0,,,,,,,,,,4
67,14,10.1016/j.msea.2008.01.064,AlCoCrFeNi,BCC,S,AC,,6.7,,C,25.0,1251.0,2004.0,,33.0,194.0,,,,,plastic strain ,,,,,5
68,18,10.1016/j.jallcom.2010.10.047,AlC0.1CoCrFeNi,BCC+eta,M,AC,,6.7,,C,25.0,957.0,2550.0,,11.0,,213.0,,,,plastic strain ,,,,,6
69,18,10.1016/j.jallcom.2010.10.047,AlC0.2CoCrFeNi,BCC+eta,M,AC,,6.8,,C,25.0,906.0,2386.0,,9.0,,151.0,,,,,,,,,6
70,18,10.1016/j.jallcom.2010.10.047,AlC0.3CoCrFeNi,BCC+eta,M,AC,,6.8,,C,25.0,867.0,2178.0,,8.0,,137.0,,,,,,,,,6
71,18,10.1016/j.jallcom.2010.10.047,AlC0.4CoCrFeNi,BCC+eta,M,AC,,6.8,,C,25.0,1056.0,2375.0,,7.0,,156.0,,,,,,,,,6
72,18,10.1016/j.jallcom.2010.10.047,AlC0.5CoCrFeNi,BCC+eta,M,AC,,6.8,,C,25.0,1060.0,2250.0,,6.0,,181.0,,,,,,,,,6
73,18,10.1016/j.jallcom.2010.10.047,AlC1.5CoCrFeNi,BCC+ eta + graphite,M,AC,,7.0,,C,25.0,1255.0,2083.0,,6.0,,73.0,,,,,,,,,6
74,18,10.1016/j.jallcom.2010.10.047,AlCCoCrFeNi,BCC+ eta + graphite,M,AC,,6.9,,C,25.0,1251.0,2166.0,,7.0,,75.0,,,,,,,,,6
75,18,10.1016/j.jallcom.2010.10.047,AlCoCrFeNi,BCC,S,AC,,6.7,,C,25.0,1138.0,,,11.0,125.0,,,,,,,,,,6
76,19,10.1016/j.msea.2010.07.028,AlCoCrFeMo0.1Ni,BCC,S,AC,,6.8,,C,25.0,1804.0,2280.0,,9.0,196.0,,,,,plastic strain; equivalent usually to total,,,,,7
77,19,10.1016/j.msea.2010.07.028,AlCoCrFeMo0.2Ni,BCC+Im,M,AC,,6.9,,C,25.0,2456.0,2953.0,,3.0,,,,,,,,,,,7
78,19,10.1016/j.msea.2010.07.028,AlCoCrFeMo0.3Ni,BCC+Im,M,AC,,7.0,,C,25.0,2649.0,3208.0,,3.0,,,,,,,,,,,7
79,19,10.1016/j.msea.2010.07.028,AlCoCrFeMo0.4Ni,BCC+Im,M,AC,,7.0,,C,25.0,2670.0,3161.0,,3.0,,,,,,,,,,,7
80,19,10.1016/j.msea.2010.07.028,AlCoCrFeMo0.5Ni,BCC+Im,M,AC,,7.1,,C,25.0,2757.0,3036.0,,3.0,,,,,,,,,,,7
81,19,10.1016/j.msea.2010.07.028,AlCoCrFeNi,BCC,S,AC,,6.7,,C,25.0,1051.0,,,,194.0,,,,,,,,,,7
82,20,10.1016/j.msea.2011.10.110,AlCoCrFeNb0.1Ni,BCC,S,AC,,6.8,569.0,C,25.0,1641.0,3285.0,,17.0,192.0,,,,,plastic strain ,,,,,8
83,20,10.1016/j.msea.2011.10.110,AlCoCrFeNb0.25Ni,BCC+Laves (C14),M,AC,,6.8,668.0,C,25.0,1959.0,3008.0,,11.0,,,,,,,,,,,8
84,20,10.1016/j.msea.2011.10.110,AlCoCrFeNb0.5Ni,BCC+Laves (C14),M,AC,,7.0,747.0,C,25.0,2473.0,3170.0,,4.0,,,,,,,,,,,8
85,20,10.1016/j.msea.2011.10.110,AlCoCrFeNb0.75Ni,BCC+Laves (C14),M,AC,,7.0,,,25.0,,,,,,,,,,,,,,,8
86,20,10.1016/j.msea.2011.10.110,AlCoCrFeNi,BCC,S,AC,,6.7,520.0,C,25.0,1373.0,3531.0,,25.0,194.0,,,,,,,,,,8
87,21,10.1002/adem.200900171,Al0.8CoCrCuFeNi,FCC+BCC,M,AC,,7.3,270.0,,25.0,,,,,187.0,,,,,,,,,,9
88,21,10.1002/adem.200900171,AlCo0.5CrFeMo0.5Ni,BCC+sigma,M,AC,,7.0,801.0,,25.0,,,,,,,,,,,,,,,9
89,21,10.1002/adem.200900171,AlCo1.5CrFeMo0.5Ni,BCC+sigma,M,AC,,7.2,741.0,,25.0,,,,,,,,,,,,,,,9
90,21,10.1002/adem.200900171,AlCo2CrFeMo0.5Ni,FCC+BCC+sigma,M,AC,200,7.3,586.0,,25.0,,,,,,,,,,,,,,,9
91,21,10.1002/adem.200900171,AlCoCrFeMo0.5Ni,BCC+sigma,M,AC,,7.1,796.0,,25.0,,,,,,,,,,,,,,,9
92,22,10.1016/j.wear.2009.10.013,AlCoCrFe1Mo0.5Ni,BCC+sigma,M,AC,,7.0,755.0,,25.0,,,,,,,,,,edited the composition from 0.5 to 1,,,,,10
93,22,10.1016/j.wear.2009.10.013,AlCoCrFe0.6Mo0.5Ni,BCC+sigma,M,AC,,7.1,754.0,,25.0,,,,,,,,,,,,,,,10
94,22,10.1016/j.wear.2009.10.013,AlCoCrFe1.5Mo0.5Ni,BCC+sigma,M,AC,,7.2,635.0,,25.0,,,,,,,,,,,,,,,10
95,22,10.1016/j.wear.2009.10.013,AlCoCrFe2Mo0.5Ni,BCC+sigma,M,AC,,7.2,639.0,,25.0,,,,,,,,,,,,,,,10
96,23,10.1016/j.intermet.2012.09.008,AlCoCrFeMo0.5,B2 + omega,M,AC,,6.8,857.0,,25.0,,,,,,,,,,changed from BCC to B2,,,,,11
97,23,10.1016/j.intermet.2012.09.008,AlCoCrFeMo0.5Ni,B2 + omega,M,AC,,7.1,730.0,,25.0,,,,,,,,,,changed from BCC to B2,,,,,11
98,23,10.1016/j.intermet.2012.09.008,AlCoCrFeMo0.5Ni0.5,B2 + omega,M,AC,,7.0,708.0,,25.0,,,,,,,,,,changed from BCC to B2,,,,,11
99,23,10.1016/j.intermet.2012.09.008,AlCoCrFeMo0.5Ni1.5,FCC+B2 + omega,M,AC,,7.2,586.0,,25.0,,,,,,,,,,changed from BCC to B2,,,,,11
100,23,10.1016/j.intermet.2012.09.008,AlCoCrFeMo0.5Ni2,FCC+B2 + omega,M,AC,,7.4,395.0,,25.0,,,,,,,,,,changed from BCC to B2,,,,,11
101,24,10.1016/j.msea.2010.07.049,AlCoCrFeNi,BCC,S,AC,,5.7,,C,25.0,1110.0,,,,169.0,,,,,,,,,,12
102,24,10.1016/j.msea.2010.07.049,AlCoCrFeNiSi,BCC+Im,M,AC,,5.7,,C,25.0,2411.0,2950.0,,1.0,,,,,,"plastic strain, stress strain curves not provided",,,,,12
103,24,10.1016/j.msea.2010.07.049,AlCoCrFeNiSi0.2,BCC,S,AC,,6.5,,C,25.0,1265.0,2173.0,,14.0,188.0,,,,,,,,,,12
104,24,10.1016/j.msea.2010.07.049,AlCoCrFeNiSi0.4,BCC,S,AC,,6.2,,C,25.0,1481.0,2444.0,,13.0,183.0,,,,,,,,,,12
105,24,10.1016/j.msea.2010.07.049,AlCoCrFeNiSi0.6,BCC,S,AC,,6.0,,C,25.0,1834.0,2195.0,,3.0,178.0,,,,,,,,,,12
106,24,10.1016/j.msea.2010.07.049,AlCoCrFeNiSi0.8,BCC+Im,M,AC,,5.8,,C,25.0,2179.0,2664.0,,2.0,,,,,,,,,,,12
107,25,10.1016/j.jallcom.2008.11.059,Al0.25CoCrCu0.5FeNiTi0.5,FCC,S,AC,,7.4,,,25.0,,,,,198.0,,,,,,,,,,13
108,25,10.1016/j.jallcom.2008.11.059,Al0.25CoCrCu0.75FeNiTi0.5,FCC,S,AC,,7.5,,C,25.0,750.0,1970.0,,39.0,,103.0,,,,"plastic strain, stress strain curves not provided",,,,,13
109,25,10.1016/j.jallcom.2008.11.059,Al0.5CoCrCu0.5FeNiTi0.5,FCC+BCC,M,AC,,7.1,,C,25.0,1580.0,2389.0,,17.0,,161.0,,,,,,,,,13
110,25,10.1016/j.jallcom.2008.11.059,Al0.75CoCrCu0.25FeNiTi0.5,FCC+BCC,M,AC,,6.8,,C,25.0,1900.0,2697.0,,12.0,,164.0,,,,,,,,,13
111,25,10.1016/j.jallcom.2008.11.059,CoCrCuFeNiTi0.5,FCC,S,AC,,7.8,,C,25.0,700.0,1650.0,,29.0,,93.0,,,,,,,,,13
112,26,10.1063/1.27345,AlCoCrFeNiTi,BCC+BCC,M,AC,,6.2,,C,25.0,1860.0,2580.0,10.7,9.0,,90.0,,,,"plastic strain, also provided elastic strain, added together for total",,,,,14
113,26,10.1063/1.27345,AlCoCrFeNiTi0.5,BCC+BCC,M,AC,,6.4,178.0,C,25.0,2260.0,3140.0,24.4,23.0,,178.0,,,,,,,,,14
114,26,10.1063/1.27345,AlCoCrFeNiTi1.5,BCC+Laves (C14),M,AC,,6.1,,C,25.0,2220.0,2720.0,6.6,5.0,,160.0,,,,,,,,,14
115,27,10.1002/adem.200300567,AlCoCrFeNiTiVZr,,,AC,,6.3,780.0,,25.0,,,,,,,,,,,,,,,15
116,27,10.1002/adem.200300567,AlCoFeNiTiVZr,BCC,S,AC,,6.2,790.0,,25.0,,,,,143.0,,,,,,,,,,15
117,27,10.1002/adem.200300567,AlFeNiTiVZr,BCC,S,AC,,5.9,800.0,,25.0,,,,,132.0,,,,,,,,,,15
118,27,10.1002/adem.200300567,CoCrCuFeNiTiVZr,,,AC,,7.1,680.0,,25.0,,,,,168.0,,,,,,,,,,15
119,27,10.1002/adem.200300567,CoCrFeMoNiTiVZr,,,AC,,7.3,850.0,,25.0,,,,,193.0,,,,,,,,,,15
120,27,10.1002/adem.200300567,CoCuFeNiTiVZr,,,AC,,7.1,630.0,,25.0,,,,,,,,,,,,,,,15
121,27,10.1002/adem.200300567,CoFeMoNiTiVZr,,,AC,,7.3,790.0,,25.0,,,,,,,,,,,,,,,15
122,27,10.1002/adem.200300567,CuFeNiTiVZr,,,AC,,6.8,590.0,,25.0,,,,,142.0,,,,,,,,,,15
123,27,10.1002/adem.200300567,FeMoNiTiVZr,BCC+Im,M,AC,,7.1,740.0,,25.0,,,,,,,,,,,,,,,15
124,28,10.1016/j.actamat.2013.09.037,Al0.10CoCrFeMnNi,FCC,S,AC,,7.9,180.0,,25.0,,,,,216.0,,,,,,,,,,16
125,28,10.1016/j.actamat.2013.09.037,Al0.20CoCrFeMnNi,FCC,S,AC,,7.7,171.0,T,25.0,220.0,,56,,214.0,,,,,total elongation ,,,,,16
126,28,10.1016/j.actamat.2013.09.037,Al0.38CoCrFeMnNi,FCC,S,AC,,7.5,182.0,T,25.0,244.0,,45,,209.0,,,,,,,,,,16
127,28,10.1016/j.actamat.2013.09.037,Al0.43CoCrFeMnNi,FCC+BCC,M,AC,,7.4,183.0,T,25.0,285.0,,35,,208.0,,,,,,,,,,16
128,28,10.1016/j.actamat.2013.09.037,Al0.49CoCrFeMnNi,FCC+BCC,M,AC,,7.4,220.0,T,25.0,331.0,,29,,206.0,,,,,,,,,,16
129,28,10.1016/j.actamat.2013.09.037,Al0.56CoCrFeMnNi,FCC+BCC,M,AC,,7.3,278.0,T,25.0,526.0,,16,,204.0,,,,,,,,,,16
130,28,10.1016/j.actamat.2013.09.037,Al0.62CoCrFeMnNi,FCC+BCC,M,AC,,7.2,405.0,T,25.0,833.0,,5,,203.0,,,,,,,,,,16
131,28,10.1016/j.actamat.2013.09.037,Al0.68CoCrFeMnNi,FCC+BCC,M,AC,,7.2,486.0,,25.0,,,,,202.0,,,,,,,,,,16
132,28,10.1016/j.actamat.2013.09.037,Al0.75CoCrFeMnNi,FCC+BCC,M,AC,,7.1,530.0,,25.0,,,,,200.0,,,,,,,,,,16
133,28,10.1016/j.actamat.2013.09.037,Al0.81CoCrFeMnNi,FCC+BCC,M,AC,,7.0,539.0,,25.0,,,,,199.0,,,,,,,,,,16
134,28,10.1016/j.actamat.2013.09.037,Al0.88CoCrFeMnNi,FCC+BCC,M,AC,,7.0,533.0,,25.0,,,,,197.0,,,,,,,,,,16
135,28,10.1016/j.actamat.2013.09.037,Al0.95CoCrFeMnNi,FCC+BCC,M,AC,,6.9,535.0,,25.0,,,,,196.0,,,,,,,,,,16
136,28,10.1016/j.actamat.2013.09.037,Al1.25CoCrFeMnNi,BCC,S,AC,,6.6,539.0,,25.0,,,,,190.0,,,,,,,,,,16
137,28,10.1016/j.actamat.2013.09.037,CoCrFeMnNi,FCC,S,AC,,8.0,176.0,T,25.0,208.0,,62,,219.0,,,,,,,,,,16
138,29,10.1016/j.jallcom.2014.12.157,CoCrFeMnNi,FCC,S,AC,300,8.0,144.0,C,25.0,,,,,,,,,,"plastic strain (called fracture strain, labeled e)",,,,,17
139,29,10.1016/j.jallcom.2014.12.157,CoCrFeMnNi,FCC,S,A,350,8.0,135.0,C,25.0,230.0,,,75.0,219.0,,,,,,,,,,17
140,29,10.1016/j.jallcom.2014.12.157,CoCrFeMnNiV0.25,FCC,S,AC,120,7.9,151.0,C,25.0,,,,,,,,,,,,,,,17
141,29,10.1016/j.jallcom.2014.12.157,CoCrFeMnNiV0.25, FCC + sigma,S,A,130,7.9,144.0,C,25.0,200.0,,,75.0,215.0,,,,,added sigma,,,,,17
142,29,10.1016/j.jallcom.2014.12.157,CoCrFeMnNiV0.5,FCC,S,AC,220,7.8,186.0,C,25.0,,,,,,,,,,,,,,,17
143,29,10.1016/j.jallcom.2014.12.157,CoCrFeMnNiV0.5,FCC,S,A,250,7.8,275.0,C,25.0,620.0,,,75.0,211.0,,,,,,,,,,17
144,29,10.1016/j.jallcom.2014.12.157,CoCrFeMnNiV0.75,FCC+sigma,M,A,500,7.7,380.0,C,25.0,740.0,1325.0,,7.8,,,,,,,,,,,17
145,29,10.1016/j.jallcom.2014.12.157,CoCrFeMnNiV0.75,FCC+sigma,M,AC,500,7.7,342.0,C,25.0,,,,,,,,,,,,,,,17
146,29,10.1016/j.jallcom.2014.12.157,CoCrFeMnNiV1.0,FCC+sigma,M,A,12,7.7,636.0,C,25.0,1660.0,1845.0,,0.5,,,,,,,,,,,17
147,29,10.1016/j.jallcom.2014.12.157,CoCrFeMnNiV1.0,FCC+sigma,M,AC,,7.7,650.0,C,25.0,,,,,,,,,,,,,,,17
148,30,10.1016/j.msea.2010.05.052,Al0.3CrFe1.5MnNi0.5,FCC+BCC,M,AC,,7.2,297.0,,25.0,,,,,213.0,,,,,,,,,,18
149,30,10.1016/j.msea.2010.05.052,Al0.5CrFe1.5MnNi0.5,BCC,S,AC,,7.0,396.0,,25.0,,,,,206.0,,,,,,,,,,18
150,31,10.1016/j.jallcom.2013.03.253,AlCrFeNi,BCC + B2,M,AC,,6.3,472.0,C,25.0,1406.0,2927.0,,29.0,190.0,,,,,plastic strain; added B2,,,,,19
151,31,10.1016/j.jallcom.2013.03.253,AlCrFeNiMo,B2+sigma,M,AC,,7.2,905.0,,25.0,,,,,,,,,,changed BCC to B2,,,,,19
152,31,10.1016/j.jallcom.2013.03.253,AlCrFeNiMo0.2,BCC + B2,M,AC,,6.5,549.0,C,25.0,1487.0,3222.0,,29.0,197.0,,,,,added B2,,,,,19
153,31,10.1016/j.jallcom.2013.03.253,AlCrFeNiMo0.5,BCC + B2,M,AC,,6.8,622.0,C,25.0,1749.0,2644.0,,13.0,205.0,,,,,added B2,,,,,19
154,31,10.1016/j.jallcom.2013.03.253,AlCrFeNiMo0.8,B2+sigma,M,AC,,7.0,854.0,C,25.0,1513.0,1513.0,,0.0,,,,,,changed BCC to B2,,,,,19
155,32,10.3166/acsm.31.633-648,Al0.3CoCrCuFe,FCC,S,,,7.7,180.0,,25.0,,,,,194.0,,,,,,,,,,20
156,32,10.3166/acsm.31.633-648,Al0.5CoCrCuFe,FCC,S,,,7.4,207.0,,25.0,,,,,187.0,,,,,,,,,,20
157,32,10.3166/acsm.31.633-648,Al0.8CoCrCuFe,FCC+BCC,M,,,7.0,271.0,,25.0,,,,,177.0,,,,,,,,,,20
158,32,10.3166/acsm.31.633-648,Al1.3CoCrCuFe,FCC+BCC,M,,,6.5,476.0,,25.0,,,,,165.0,,,,,,,,,,20
159,32,10.3166/acsm.31.633-648,Al1.5CoCrCuFe,FCC+BCC,M,,,6.3,510.0,,25.0,,,,,167.0,,,,,,,,,,20
160,32,10.3166/acsm.31.633-648,Al1.8CoCrCuFe,FCC+BCC,M,,,6.0,557.0,,25.0,,,,,155.0,,,,,,,,,,20
161,32,10.3166/acsm.31.633-648,Al2.0CoCrCuFe,FCC+BCC,M,,,5.9,567.0,,25.0,,,,,152.0,,,,,,,,,,20
162,32,10.3166/acsm.31.633-648,Al2.3CoCrCuFe,FCC+BCC,M,,,5.7,603.0,,25.0,,,,,147.0,,,,,,,,,,20
163,32,10.3166/acsm.31.633-648,Al2.5CoCrCuFe,FCC+BCC,M,,,5.6,624.0,,25.0,,,,,144.0,,,,,,,,,,20
164,32,10.3166/acsm.31.633-648,Al2.8CoCrCuFe,BCC,S,,,5.5,657.0,,25.0,,,,,140.0,,,,,,,,,,20
165,32,10.3166/acsm.31.633-648,Al3.0CoCrCuFe,BCC,S,,,5.4,644.0,,25.0,,,,,138.0,,,,,,,,,,20
166,32,10.3166/acsm.31.633-648,AlCoCrCuFe,FCC+BCC,M,,,6.8,407.0,,25.0,,,,,172.0,,,,,,,,,,20
167,32,10.3166/acsm.31.633-648,CoCrCuFe,FCC,S,,,8.2,134.0,,25.0,,,,,206.0,,,,,,,,,,20
168,33,10.1016/j.intermet.2010.03.030,CoCrCu0.5FeNi,FCC,S,AC,,8.3,172.0,,25.0,,,,,214.0,,,,,,,,,,21
169,35,10.1016/j.intermet.2006.08.005,CoCrCuFeNiTi,FCC,S,AC,,7.4,,C,25.0,1272.0,1272.0,2,0.0,77.0,,,,,provides both ,,,,,22
170,35,10.1016/j.intermet.2006.08.005,CoCrCuFeNiTi0.5,FCC,S,AC,,7.8,,C,25.0,700.0,1650.0,22,21.6,99.0,,,,,,,,,,22
171,35,10.1016/j.intermet.2006.08.005,CoCrCuFeNiTi0.8,FCC+Laves (C14),M,AC,,7.6,,C,25.0,1042.0,1848.0,3,2.11,128.0,,,,,,,,,,22
172,36,10.1149/1.27441,Al0.5B0.2CoCrCuFeNi,,,AC,,7.7,415.0,,25.0,,,,,,,,,,,,,,,23
173,36,10.1149/1.27441,Al0.5B0.6CoCrCuFeNi,,,AC,,7.7,505.0,,25.0,,,,,,,,,,,,,,,23
174,36,10.1149/1.27441,Al0.5BCoCrCuFeNi,,,AC,,7.8,736.0,,25.0,,,,,,,,,,,,,,,23
175,36,10.1149/1.27441,Al0.5CoCrCuFeNi,,,AC,,7.6,300.0,,25.0,,,,,193.0,,,,,,,,,,23
176,37,10.2320/matertrans.47.1395,Al0.5CoCrCuFeNi,FCC,S,AC,,7.6,225.0,,25.0,,,,,193.0,,,,,,,,,,24
177,37,10.2320/matertrans.47.1395,Al0.5CoCrCuFeNiTi,FCC+BCC+sigma,M,AC,,7.0,636.0,,25.0,,,,,,,,,,,,,,,24
178,37,10.2320/matertrans.47.1395,Al0.5CoCrCuFeNiTi0.2,FCC,S,AC,,7.5,272.0,,25.0,,,,,191.0,,,,,,,,,,24
179,37,10.2320/matertrans.47.1395,Al0.5CoCrCuFeNiTi0.4,FCC,S,AC,,7.3,321.0,,25.0,,,,,188.0,,,,,,,,,,24
180,37,10.2320/matertrans.47.1395,Al0.5CoCrCuFeNiTi0.6,FCC+BCC,M,AC,,7.2,458.0,,25.0,,,,,186.0,,,,,,,,,,24
181,37,10.2320/matertrans.47.1395,Al0.5CoCrCuFeNiTi0.8,FCC+BCC + sigma,M,AC,,7.1,590.0,,25.0,,,,,184.0,,,,,,,,,,24
182,37,10.2320/matertrans.47.1395,Al0.5CoCrCuFeNiTi1.2,FCC+BCC+sigma,M,AC,,6.9,646.0,,25.0,,,,,,,,,,,,,,,24
183,37,10.2320/matertrans.47.1395,Al0.5CoCrCuFeNiTi1.4,FCC+BCC+B2 +sigma + other,M,AC,,6.8,664.0,,25.0,,,,,,,,,,,,,,,24
184,37,10.2320/matertrans.47.1395,Al0.5CoCrCuFeNiTi1.6,FCC+BCC+B2 +other,M,AC,,6.7,657.0,,25.0,,,,,,,,,,,,,,,24
185,37,10.2320/matertrans.47.1395,Al0.5CoCrCuFeNiTi1.8,FCC+BCC+B2 +other,M,AC,,6.6,667.0,,25.0,,,,,,,,,,,,,,,24
186,37,10.2320/matertrans.47.1395,Al0.5CoCrCuFeNiTi2,FCC+BCC+B2 +other,M,AC,,6.5,696.0,,25.0,,,,,,,,,,,,,,,24
187,38,10.1007/s11661-006-0081-3,Al0.5CoCrCuFeNi,FCC,S,AC,,7.6,215.0,,25.0,,,,,193.0,,,,,,,,,,25
188,38,10.1007/s11661-006-0081-3,Al0.5CoCrCuFeNiV0.2,FCC,S,AC,,7.6,204.0,,25.0,,,,,191.0,,,,,,,,,,25
189,38,10.1007/s11661-006-0081-3,Al0.5CoCrCuFeNiV0.4,FCC+BCC,M,AC,,7.5,231.0,,25.0,,,,,189.0,,,,,,,,,,25
190,38,10.1007/s11661-006-0081-3,Al0.5CoCrCuFeNiV0.6,FCC+BCC+sigma,M,AC,,7.5,328.0,,25.0,,,,,,,,,,,,,,,25
191,38,10.1007/s11661-006-0081-3,Al0.5CoCrCuFeNiV0.8,FCC+BCC+sigma,M,AC,,7.4,447.0,,25.0,,,,,,,,,,,,,,,25
192,38,10.1007/s11661-006-0081-3,Al0.5CoCrCuFeNiV1.0,FCC+BCC+sigma,M,AC,,7.4,639.0,,25.0,,,,,,,,,,,,,,,25
193,38,10.1007/s11661-006-0081-3,Al0.5CoCrCuFeNiV1.2,BCC,S,AC,,7.3,579.0,,25.0,,,,,182.0,,,,,,,,,,25
194,38,10.1007/s11661-006-0081-3,Al0.5CoCrCuFeNiV1.4,BCC,S,AC,,7.3,577.0,,25.0,,,,,180.0,,,,,,,,,,25
195,38,10.1007/s11661-006-0081-3,Al0.5CoCrCuFeNiV1.6,BCC,S,AC,,7.2,594.0,,25.0,,,,,179.0,,,,,,,,,,25
196,38,10.1007/s11661-006-0081-3,Al0.5CoCrCuFeNiV1.8,BCC,S,AC,,7.2,597.0,,25.0,,,,,177.0,,,,,,,,,,25
197,38,10.1007/s11661-006-0081-3,Al0.5CoCrCuFeNiV2.0,BCC,S,AC,,7.2,587.0,,25.0,,,,,176.0,,,,,,,,,,25
198,39,10.1016/j.msea.2012.07.003,AlCoCrCuFeNi,FCC+BCC,M,AC,,7.1,472.0,,25.0,,,,,184.0,,,,,,,,,,26
199,39,10.1016/j.msea.2012.07.003,AlCoCuFeNdNi,Im,M,AC,,7.4,578.0,,25.0,,,,,,,,,,changed Nb to Nd,,,,,26
200,39,10.1016/j.msea.2012.07.003,AlCoCuFeNi,FCC+BCC,M,AC,,7.0,536.0,,25.0,,,,,164.0,,,,,,,,,,26
201,39,10.1016/j.msea.2012.07.003,AlCoCuFeNiSi,FCC+BCC,M,AC,,5.9,682.0,,25.0,,,,,145.0,,,,,,,,,,26
202,39,10.1016/j.msea.2012.07.003,AlCoCuFeNiTi,FCC+BCC,M,AC,,6.5,626.0,,25.0,,,,,156.0,,,,,,,,,,26
203,39,10.1016/j.msea.2012.07.003,AlCoCuFeNiZr,FCC+BCC+Im,M,AC,,6.9,472.0,,25.0,,,,,,,,,,,,,,,26
204,40,10.1016/j.msea.2008.08.025,AlCoCrCuFeMnNi,FCC+BCC+Im,M,AC,,7.1,,C,25.0,1005.0,,15,,,,,,,total elongation is reported,,,,,28
205,40,10.1016/j.msea.2008.08.025,AlCoCrCuFeNi,FCC+BCC,M,AC,,7.1,,C,25.0,1303.0,,24,,183.0,,,,,,,,,,28
206,40,10.1016/j.msea.2008.08.025,AlCoCrCuFeNiTi,FCC+BCC + BCC,M,AC,,6.6,,C,25.0,1234.0,,9,,174.0,,,,,,,,,,28
207,40,10.1016/j.msea.2008.08.025,AlCoCrCuFeNiV,FCC+BCC,M,AC,,6.9,,C,25.0,1469.0,,16,,175.0,,,,,,,,,,28
208,42,10.1016/j.matdes.2009.09.016,AlCoCrCuNiTi,BCC,S,,,6.4,,C,25.0,,1495.0,,8.0,,36.0,,,,plastic elongation is reported; no stress strain provided,,,,,29
209,42,10.1016/j.matdes.2009.09.016,AlCoCrCuNiTiY,Im,M,AC,,5.8,,C,25.0,,1192.0,,4.0,,37.0,,,,,,,,,29
210,42,10.1016/j.matdes.2009.09.016,AlCoCrCuNiTiY0.5,Im,M,AC,,6.1,,C,25.0,,1025.0,,3.0,,36.0,,,,,,,,,29
211,42,10.1016/j.matdes.2009.09.016,AlCoCrCuNiTiY0.8,Im,M,AC,,5.9,,C,25.0,,1325.0,,5.0,,38.0,,,,,,,,,29
212,43,10.1016/j.msea.2012.03.080,CoCuFeNi,FCC,S,AC,,8.6,,T,25.0,,480.0,,15.0,188.0,,,,,I think this is plastic elongation ,,,,,30
213,43,10.1016/j.msea.2012.03.080,CoCuFeNiSn0.02,FCC,S,AC,,8.6,,T,25.0,,548.0,,17.0,187.0,,,,,,,,,,30
214,43,10.1016/j.msea.2012.03.080,CoCuFeNiSn0.04,FCC+Im,M,AC,,8.6,,T,25.0,,594.0,,18.0,,,,,,,,,,,30
215,43,10.1016/j.msea.2012.03.080,CoCuFeNiSn0.05,FCC+Im,M,AC,,8.6,,T,25.0,,615.0,,20.0,,,,,,,,,,,30
216,43,10.1016/j.msea.2012.03.080,CoCuFeNiSn0.07,FCC+Im,M,AC,,8.6,,T,25.0,,632.0,,19.0,,,,,,,,,,,30
217,43,10.1016/j.msea.2012.03.080,CoCuFeNiSn0.1,FCC+Im,M,AC,,8.6,,T,25.0,,602.0,,5.0,,,,,,,,,,,30
218,43,10.1016/j.msea.2012.03.080,CoCuFeNiSn0.2,FCC+Im,M,AC,,8.5,,T,25.0,,261.0,,2.0,,,,,,,,,,,30
219,43,10.1016/j.msea.2012.03.080,CoCuFeNiSn0.5,FCC+Im,M,AC,,8.3,,,25.0,,,,,,,,,,,,,,,30
220,44,10.1016/j.matdes.2012.08.019,CoCuFeMnNi,FCC,S,AC,,8.4,208.0,T,25.0,,478.0,,14.0,190.0,,,,,i think this is plastic,,,,,31
221,44,10.1016/j.matdes.2012.08.019,CoCuFeMnNiSn0.03,FCC,S,AC,,8.4,192.0,T,25.0,,465.0,,18.0,,,,,,,,,,,31
222,44,10.1016/j.matdes.2012.08.019,CoCuFeMnNiSn0.05,FCC+Im,M,AC,,8.4,205.0,T,25.0,,475.0,,12.0,,,,,,,,,,,31
223,44,10.1016/j.matdes.2012.08.019,CoCuFeMnNiSn0.08,FCC+Im,M,AC,,8.3,219.0,T,25.0,,425.0,,7.0,,,,,,,,,,,31
224,44,10.1016/j.matdes.2012.08.019,CoCuFeMnNiSn0.10,FCC+Im,M,AC,,8.3,253.0,T,25.0,,470.0,,6.0,,,,,,,,,,,31
225,44,10.1016/j.matdes.2012.08.019,CoCuFeMnNiSn0.20,FCC+Im,M,AC,,8.3,319.0,T,25.0,,368.0,,2.0,,,,,,,,,,,31
226,45,10.1016/j.msea.2011.11.063,AlCrCuFeNi,FCC+BCC,M,A,,6.8,495.0,,25.0,,,,,178.0,,,,,,,,,,32
227,45,10.1016/j.msea.2011.11.063,AlCrCuFeNi0.6,FCC+BCC,M,A,,6.6,496.0,,25.0,,,,,176.0,,,,,,,,,,32
228,45,10.1016/j.msea.2011.11.063,AlCrCuFeNi0.8,FCC+BCC,M,A,,6.7,486.0,,25.0,,,,,177.0,,,,,,,,,,32
229,45,10.1016/j.msea.2011.11.063,AlCrCuFeNi1.2,FCC+BCC,M,A,,6.8,407.0,,25.0,,,,,179.0,,,,,,,,,,32
230,45,10.1016/j.msea.2011.11.063,AlCrCuFeNi1.4,FCC+BCC,M,A,,6.9,367.0,,25.0,,,,,180.0,,,,,,,,,,32
231,45,10.1016/j.msea.2011.11.063,CoCrCuFeNi,FCC,S,,,8.3,286.0,C,25.0,230.0,888.0,51,,56.0,,,,,total elongation ,,,,,32
232,46,10.1063/1.35872,Al0.2CrCuFeNi2,FCC,S,,,8.0,,,25.0,,,,,199.0,,,,,,,,,,33
233,46,10.1063/1.35872,Al0.4CrCuFeNi2,FCC,S,,,7.8,,,25.0,,,,,194.0,,,,,,,,,,33
234,46,10.1063/1.35872,Al0.6CrCuFeNi2,FCC,S,,,7.5,,,25.0,,,,,190.0,,,,,,,,,,33
235,46,10.1063/1.35872,Al0.8CrCuFeNi2,FCC,S,,,7.3,,,25.0,,,,,186.0,,,,,,,,,,33
236,46,10.1063/1.35872,Al1.2CrCuFeNi2,FCC+BCC,M,,,6.9,,,25.0,,,,,178.0,,,,,,,,,,33
237,46,10.1063/1.35872,AlCrCuFeNi2,FCC+BCC,M,,,7.1,,,25.0,,,,,182.0,,,,,,,,,,33
238,47,10.1016/j.jallcom.2011.02.108,AlCrCuFeNiTi,BCC+ BCC +Laves (C14),M,A,,6.3,,C,25.0,,1219.0,,,,,,,,,,,,,34
239,48,10.1016/j.apsusc.2015.07.207,Al1.125CuFe0.75NiTi1.125,FCC,S,AC,,5.9,516.0,C,25.0,980.0,1326.0,,7.0,,145.0,,,,plastic strain; also unrecorded high temperature data...,,,,,35
240,48,10.1016/j.apsusc.2015.07.207,Al22.5Cu20Fe15Ni20Ti22.5,FCC,S,AC,,5.9,516.0,C,25.0,980.0,1326.0,,7.0,,145.0,,,,,,,,,35
241,48,10.1016/j.apsusc.2015.07.207,AlCuFeNiTi,FCC,S,AC,,6.1,516.0,C,25.0,1074.0,1617.0,,8.0,,146.0,,,,,,,,,35
242,48,10.1016/j.apsusc.2015.07.207,AlCuNiTi,FCC,S,AC,,5.7,537.0,C,25.0,300.0,536.0,,0.85,,108.0,,,,,,,,,35
243,49,10.1007/s11837-015-1402-z,Al8Cu0.5Li0.5Mg0.5Zn0.5,FCC+Im,M,AC,,2.9,,C,25.0,488.0,879.0,17,,,,,,,total elongation I think,,,,,36
244,49,10.1007/s11837-015-1402-z,Al8Li0.5Mg0.5Sn0.5Zn0.5,FCC+Im,M,AC,,3.0,,C,25.0,415.0,836.0,16,,,,,,,,,,,,36
245,49,10.1007/s11837-015-1402-z,AlCu0.2Li0.5MgZn0.5,Im,M,AC,,2.7,,,25.0,,,,,,,,,,,,,,,36
246,49,10.1007/s11837-015-1402-z,AlCu0.5Li0.5MgSn0.2,Im,M,AC,,3.0,,,25.0,,,,,,,,,,,,,,,36
247,49,10.1007/s11837-015-1402-z,AlLi0.5MgSn0.2Zn0.5,FCC+Im,M,AC,,2.9,,C,25.0,546.0,546.0,,,,,,,,,,,,,36
248,49,10.1007/s11837-015-1402-z,AlLiMgSnZn,FCC+HCP+Im,M,AC,,3.9,,C,25.0,600.0,615.0,1,,,,,,,,,,,,36
249,50,10.1080/21663831.2014.985855,AlLiMg0.5ScTi1.5,FCC+HCP,M,,,2.7,591.0,,25.0,,,,,69.0,,,,,,,,,,38
250,52,10.1007/s11837-014-1066-0,Al0.3NbTa0.8Ti1.4V0.2Zr1.3,BCC,S,HIP+A,180,7.7,500.0,C,25.0,1965.0,2061.0,5,,110.0,,,,,I think this is total elongation ,,,,,39
251,52,10.1007/s11837-014-1066-0,Al0.3NbTa0.8Ti1.4V0.2Zr1.3,BCC,S,HIP+A,,7.8,,C,800.0,678.0,693.0,>50,,,,,,,A5,,,,,39
252,52,10.1007/s11837-014-1066-0,Al0.3NbTa0.8Ti1.4V0.2Zr1.3,BCC,S,HIP+A,,7.8,,C,1000.0,166.0,189.0,>50,,,,,,,A5,,,,,39
253,52,10.1007/s11837-014-1066-0,Al0.3NbTaTi1.4Zr1.3,BCC,S,HIP+A,200,8.1,490.0,C,25.0,1965.0,2054.0,5,,113.0,,,,,,,,,,39
254,52,10.1007/s11837-014-1066-0,Al0.3NbTaTi1.4Zr1.3,BCC,S,HIP+A,,8.2,,C,800.0,362.0,397.0,>50,,,,,,,A4,,,,,39
255,52,10.1007/s11837-014-1066-0,Al0.3NbTaTi1.4Zr1.3,BCC,S,HIP+A,,8.2,,C,1000.0,236.0,247.0,>50,,,,,,,A4,,,,,39
256,52,10.1007/s11837-014-1066-0,Al0.4Hf0.6NbTaTiZr,BCC,S,HIP+A,140,9.1,500.0,C,25.0,1841.0,2269.0,10,,110.0,,,,,,,,,,39
257,52,10.1007/s11837-014-1066-0,Al0.4Hf0.6NbTaTiZr,BCC,S,HIP+A,,9.0,,C,800.0,796.0,834.0,>50,,,,,,,A3,,,,,39
258,52,10.1007/s11837-014-1066-0,Al0.4Hf0.6NbTaTiZr,BCC,S,HIP+A,,9.0,,C,1000.0,298.0,455.0,>50,,,,,,,A3,,,,,39
259,52,10.1007/s11837-014-1066-0,Al0.5NbTa0.8Ti1.5V0.2Zr,BCC,S,HIP+A,100,7.6,530.0,C,25.0,2035.0,2105.0,5,,111.0,,,,,,,,,,39
260,52,10.1007/s11837-014-1066-0,Al0.5NbTa0.8Ti1.5V0.2Zr,BCC,S,HIP+A,,7.4,,C,800.0,796.0,851.0,>50,,,,,,,A6,,,,,39
261,52,10.1007/s11837-014-1066-0,Al0.5NbTa0.8Ti1.5V0.2Zr,BCC,S,HIP+A,,7.4,,C,1000.0,220.0,225.0,>50,,,,,,,A6,,,,,39
262,52,10.1007/s11837-014-1066-0,AlMo0.5NbTa0.5TiZr,BCC+B2,M,HIP+A,75,7.1,591.0,C,25.0,2000.0,2368.0,10,,123.0,,,,,,,,,,39
263,52,10.1007/s11837-014-1066-0,AlMo0.5NbTa0.5TiZr,BCC+B2,M,HIP+A,,7.4,,C,800.0,1597.0,1810.0,11,,,,,,,A1,,,,,39
264,52,10.1007/s11837-014-1066-0,AlMo0.5NbTa0.5TiZr,BCC+B2,M,HIP+A,,7.4,,C,1000.0,745.0,772.0,>50,,,,,,,A1,,,,,39
265,52,10.1007/s11837-014-1066-0,AlMo0.5NbTa0.5TiZr,BCC+B2,M,HIP+A,,7.4,,C,1200.0,250.0,,>50,,,,,,,A1,,,,,39
266,52,10.1007/s11837-014-1066-0,AlNb1.5Ta0.5Ti1.5Zr0.5,BCC,S,HIP+A,2000,6.8,408.0,C,25.0,1280.0,1367.0,4,,106.0,,,,,,,,,,39
267,52,10.1007/s11837-014-1066-0,AlNb1.5Ta0.5Ti1.5Zr0.5,BCC,S,HIP+A,,6.9,,C,800.0,728.0,1000.0,>12,,,,,,,A2,,,,,39
268,52,10.1007/s11837-014-1066-0,AlNb1.5Ta0.5Ti1.5Zr0.5,BCC,S,HIP+A,,6.9,,C,1000.0,403.0,415.0,>50,,,,,,,A2,,,,,39
269,53,10.1016/j.jallcom.2014.11.064,Al0.3HfNbTaTiZr,BCC,S,AC,105,9.5,353.0,C,25.0,1188.0,,50,,,63.0,,,,total elongation ,,,,,40
270,53,10.1016/j.jallcom.2014.11.064,Al0.5HfNbTaTiZr,BCC,S,AC,86,9.3,396.0,C,25.0,1302.0,,46,,,97.0,,,,,,,,,40
271,53,10.1016/j.jallcom.2014.11.064,Al0.75HfNbTaTiZr,BCC,S,AC,89,9.3,427.0,C,25.0,1415.0,2050.0,30,,,102.0,,,,,,,,,40
272,53,10.1016/j.jallcom.2014.11.064,AlHfNbTaTiZr,BCC+Im,M,AC,92,8.6,441.0,C,25.0,1489.0,1900.0,21,,,103.0,,,,,,,,,40
273,53,10.1016/j.jallcom.2014.11.064,HfNbTaTiZr,BCC,S,AC,120,9.7,295.0,C,25.0,1073.0,,50,,,55.0,,,,,,,,,40
274,54,10.3390/e16020870,Al0.25MoNbTiV,BCC,S,AC,,7.1,460.0,C,25.0,1250.0,1500.0,13,,164.0,,,,,total elongation ,,,,,41
275,54,10.3390/e16020870,Al0.5MoNbTiV,BCC,S,AC,,6.8,487.0,C,25.0,1625.0,1800.0,11,,158.0,,,,,,,,,,41
276,54,10.3390/e16020870,Al0.75MoNbTiV,BCC,S,AC,,6.6,517.0,C,25.0,1260.0,1300.0,8,,154.0,,,,,,,,,,41
277,54,10.3390/e16020870,AlMoNbTiV,BCC,S,AC,,6.4,537.0,C,25.0,1375.0,1400.0,3,,150.0,,,,,,,,,,41
278,54,10.3390/e16020870,MoNbTiV,BCC,S,AC,,7.3,441.0,C,25.0,1200.0,2050.0,26,,170.0,,,,,,,,,,41
279,55,10.1016/j.proeng.2012.03.043,Al0.25NbTaTiV,BCC,S,AC,,8.8,,C,25.0,1330.0,,,,92.0,,,,,,,,,,42
280,55,10.1016/j.proeng.2012.03.043,Al0.5NbTaTiV,BCC,S,AC,,8.5,,C,25.0,1014.0,,,,97.0,,,,,,,,,,42
281,55,10.1016/j.proeng.2012.03.043,AlNbTaTiV,BCC,S,AC,,7.9,,C,25.0,993.0,,,,101.0,,,,,,,,,,42
282,55,10.1016/j.proeng.2012.03.043,NbTaTiV,BCC,S,AC,,9.2,,C,25.0,1092.0,,,,106.0,,,,,,,,,,42
283,56,10.1016/j.matlet.2014.11.162,AlNbTiV,BCC,S,A,300-400,5.5,448.0,C,25.0,1020.0,1318.0,,5.0,105.0,,,,,plastic elongation ,,,,,43
284,56,10.1016/j.matlet.2014.11.162,AlNbTiV,BCC,S,A,,5.6,,C,600.0,810.0,1050.0,,12.0,,,,,,,,,,,43
285,56,10.1016/j.matlet.2014.11.162,AlNbTiV,BCC,S,A,,5.6,,C,800.0,685.0,,,50.0,,,,,,,,,,,43
286,56,10.1016/j.matlet.2014.11.162,AlNbTiV,BCC,S,A,,5.6,,C,1000.0,158.0,,,50.0,,,,,,,,,,,43
287,58,10.1016/j.msea.2011.09.033,CrMo0.5NbTa0.5TiZr,BCC+BCC+Laves (C15),M,HIP+A,,8.0,540.0,C,25.0,1595.0,2046.0,5,,,,,,,total elongation ,,,,,44
288,58,10.1016/j.msea.2011.09.033,CrMo0.5NbTa0.5TiZr,BCC+BCC+Laves (C15),M,HIP+A,,8.2,,C,800.0,983.0,1100.0,5.5,,,,,,,,,,,,44
289,58,10.1016/j.msea.2011.09.033,CrMo0.5NbTa0.5TiZr,BCC+BCC+Laves (C15),M,HIP+A,,8.2,,C,1000.0,546.0,630.0,50,,,,,,,,,,,,44
290,58,10.1016/j.msea.2011.09.033,CrMo0.5NbTa0.5TiZr,BCC+BCC+Laves (C15),M,HIP+A,,8.2,,C,1200.0,170.0,190.0,50,,,,,,,,,,,,44
291,59,10.1016/j.msea.2012.12.018,CrNbTiVZr,BCC+laves,M,HIP+A,,6.6,482.0,C,25.0,1298.0,,3,,,,,,,total elongation ,,,,,45
292,59,10.1016/j.msea.2012.12.018,CrNbTiVZr,BCC+laves,M,HIP+A,,6.6,,C,600.0,1230.0,,10,,,,,,,,,,,,45
293,59,10.1016/j.msea.2012.12.018,CrNbTiVZr,BCC+laves,M,HIP+A,,6.6,,C,800.0,615.0,,>50,,,,,,,,,,,,45
294,59,10.1016/j.msea.2012.12.018,CrNbTiVZr,BCC+laves,M,HIP+A,,6.6,,C,1000.0,259.0,,>50,,,,,,,,,,,,45
295,59,10.1016/j.msea.2012.12.018,CrNbTiZr,BCC+laves,M,HIP+A,,6.6,418.0,C,25.0,1260.0,,6,,,,,,,,,,,,45
296,59,10.1016/j.msea.2012.12.018,CrNbTiZr,BCC+laves,M,HIP+A,,6.7,,C,600.0,1035.0,,>50,,,,,,,,,,,,45
297,59,10.1016/j.msea.2012.12.018,CrNbTiZr,BCC+laves,M,HIP+A,,6.7,,C,800.0,300.0,,>50,,,,,,,,,,,,45
298,59,10.1016/j.msea.2012.12.018,CrNbTiZr,BCC+laves,M,HIP+A,,6.7,,C,1000.0,115.0,,>50,,,,,,,,,,,,45
299,59,10.1016/j.msea.2012.12.018,NbTiV2Zr,BCC,S,HIP+A,500-600,6.4,304.0,C,25.0,918.0,,> 50,,109.0,,,,,,,,,,45
300,59,10.1016/j.msea.2012.12.018,NbTiV2Zr,BCC,S,HIP+A,,6.3,,C,600.0,571.0,,50,,,,,,,,,,,,45
301,59,10.1016/j.msea.2012.12.018,NbTiV2Zr,BCC,S,HIP+A,,6.3,,C,800.0,240.0,,50,,,,,,,,,,,,45
302,59,10.1016/j.msea.2012.12.018,NbTiV2Zr,BCC,S,HIP+A,,6.3,,C,1000.0,72.0,,50,,,,,,,,,,,,45
303,59,10.1016/j.msea.2012.12.018,NbTiVZr,BCC,S,HIP+A,500-600,6.5,335.0,C,25.0,1105.0,,> 50,,104.0,,,,,,,,,,45
304,59,10.1016/j.msea.2012.12.018,NbTiVZr,BCC,S,HIP+A,,6.5,,C,600.0,834.0,,50,,,,,,,,,,,,45
305,59,10.1016/j.msea.2012.12.018,NbTiVZr,BCC,S,HIP+A,,6.5,,C,800.0,187.0,,50,,,,,,,,,,,,45
306,59,10.1016/j.msea.2012.12.018,NbTiVZr,BCC,S,HIP+A,,6.5,,C,1000.0,58.0,,50,,,,,,,,,,,,45
307,61,10.1016/j.intermet.2015.09.011,Hf0.5Mo0.5NbTiZr,BCC,S,AC,,7.9,,C,25.0,1176.0,1538.0,,,123.1,,,,,,,,,,47
308,61,10.1016/j.intermet.2015.09.011,Hf0.5Mo0.5NbTiZrC0.1,BCC+HfC,M,AC,,7.8,,C,25.0,1183.0,2139.0,38,,,,,,,total elongation ,,,,,47
309,61,10.1016/j.intermet.2015.09.011,Hf0.5Mo0.5NbTiZrC0.3,BCC+HfC,M,AC,,7.7,,C,25.0,1201.0,1965.0,33,,,,,,,,,,,,47
310,62,10.1016/j.matlet.2016.03.133,HfMo0.25NbTaTiZr,BCC,S,AC,,9.9,395.0,C,25.0,1112.0,,50,,,96.0,,,,total elongation ,,,,,48
311,62,10.1016/j.matlet.2016.03.133,HfMo0.5NbTaTiZr,BCC,S,AC,,10.0,480.0,C,25.0,1317.0,,50,,,102.0,,,,,,,,,48
312,62,10.1016/j.matlet.2016.03.133,HfMo0.75NbTaTiZr,BCC,S,AC,,10.0,492.0,C,25.0,1373.0,,50,,,109.0,,,,,,,,,48
313,62,10.1016/j.matlet.2016.03.133,HfMoNbTaTiZr,BCC,S,AC,,10.0,505.0,C,25.0,1512.0,1800.0,12,,,115.0,,,,,,,,,48
314,62,10.1016/j.matlet.2016.03.133,HfNbTaTiZr,BCC,S,AC,,9.9,335.0,C,25.0,1015.0,,50,,,85.0,,,,,,,,,48
315,63,10.1016/j.intermet.2015.03.013,HfMoNbTaTiZr,BCC,S,AC,,10.0,505.0,C,25.0,1512.0,,12,,147.0,,,,,total elongation ,,,,,49
316,63,10.1016/j.intermet.2015.03.013,HfMoNbTaTiZr,BCC,S,AC,,10.0,,C,800.0,1007.0,,23,,,,,,,,,,,,49
317,63,10.1016/j.intermet.2015.03.013,HfMoNbTaTiZr,BCC,S,AC,,10.0,,C,1000.0,814.0,,30,,,,,,,,,,,,49
318,63,10.1016/j.intermet.2015.03.013,HfMoNbTaTiZr,BCC,S,AC,,10.0,,C,1200.0,556.0,,30,,,,,,,,,,,,49
319,63,10.1016/j.intermet.2015.03.013,HfMoTaTiZr,BCC,S,AC,,10.2,542.0,C,25.0,1600.0,1743.0,4,,155.0,,,,,,,,,,49
320,63,10.1016/j.intermet.2015.03.013,HfMoTaTiZr,BCC,S,AC,,10.2,,C,800.0,1045.0,1446.0,19,,,,,,,,,,,,49
321,63,10.1016/j.intermet.2015.03.013,HfMoTaTiZr,BCC,S,AC,,10.2,,C,1000.0,855.0,,30,,,,,,,,,,,,49
322,63,10.1016/j.intermet.2015.03.013,HfMoTaTiZr,BCC,S,AC,,10.2,,C,1200.0,404.0,,30,,,,,,,,,,,,49
323,64,10.1016/j.matdes.2015.05.019,HfMoNbTiZr,BCC,S,A,,8.7,,C,25.0,1575.0,1640.0,9,,,,,,,total elongation ,,,,,50
324,64,10.1016/j.matdes.2015.05.019,HfMoNbTiZr,BCC,S,A,,8.7,,C,800.0,825.0,1095.0,50,,,,,,,,,,,,50
325,64,10.1016/j.matdes.2015.05.019,HfMoNbTiZr,BCC,S,A,,8.7,,C,1000.0,635.0,654.0,50,,,,,,,,,,,,50
326,64,10.1016/j.matdes.2015.05.019,HfMoNbTiZr,BCC,S,A,,8.7,,C,1200.0,187.0,194.0,50,,,,,,,,,,,,50
327,64,10.1016/j.matdes.2015.05.019,HfMoNbZrTi,BCC,S,AC,,8.7,,C,25.0,1803.0,1719.0,10,,139.0,,,,,,,,,,50
328,65,10.1016/j.matlet.2016.03.092,HfNbSi0.5TiV,BCC+silicide,M,AC,,8.6,,C,800.0,875.0,,50,,,,,,,cold crucible lev melting,,,,,51
329,65,10.1016/j.matlet.2016.03.092,HfNbSi0.5TiV,BCC+silicide,M,AC,,8.6,,C,1000.0,240.0,,50,,,,,,,cold crucible lev melting,,,,,51
330,65,10.1016/j.matlet.2016.03.092,HfNbSi0.5TiV,BCC+silicide,M,AC,,8.6,490.0,C,25.0,1399.0,1608.0,11,,,,,,,cold crucible leviation melting = AC,,,,,51
331,68,10.1063/1.49667,Hf0.5Nb0.5Ta0.5Ti1.5Zr,BCC,S,AC,,8.1,301.0,T,25.0,903.0,990.0,19,,107.0,,,,,total elongation ,,,,,52
332,69,10.1007/s10853-012-6260-2,HfNbTaTiZr,BCC,S,HIP+A,,9.9,,C,25.0,929.0,,50,,,,,,,,,,,,53
333,69,10.1007/s10853-012-6260-2,HfNbTaTiZr,BCC,S,HIP+A,,9.9,,C,400.0,790.0,,50,,,,,,,,,,,,53
334,69,10.1007/s10853-012-6260-2,HfNbTaTiZr,BCC,S,HIP+A,,9.9,,C,600.0,675.0,,50,,,,,,,,,,,,53
335,69,10.1007/s10853-012-6260-2,HfNbTaTiZr,BCC,S,HIP+A,,9.9,,C,800.0,535.0,,50,,,,,,,,,,,,53
336,69,10.1007/s10853-012-6260-2,HfNbTaTiZr,BCC,S,HIP+A,,9.9,,C,1000.0,295.0,,50,,,,,,,,,,,,53
337,69,10.1007/s10853-012-6260-2,HfNbTaTiZr,BCC,S,HIP+A,,9.9,,C,1200.0,92.0,,50,,,,,,,,,,,,53
338,71,10.1016/j.matlet.2014.05.134,HfNbTiZr,BCC,S,AC,,8.4,,T,25.0,879.0,969.0,,14.9,92.0,,,,,plastic strain ,,,,,55
339,72,10.3390/e18050189,MoNbTaV,BCC,S,A,200,10.7,504.0,C,25.0,1525.0,2400.0,21,,187.0,,,,,total elongation ,,,,,56
340,73,10.1016/j.intermet.2011.01.004,MoNbTaVW,BCC,S,AC,80,12.4,536.0,C,25.0,1246.0,1270.0,2,,232.0,,,,,total elongation ,,,,,57
341,73,10.1016/j.intermet.2011.01.004,MoNbTaVW,BCC,S,AC,,12.4,,C,600.0,862.0,,13,,,,,,,,,,,,57
342,73,10.1016/j.intermet.2011.01.004,MoNbTaVW,BCC,S,AC,,12.4,,C,800.0,846.0,,17,,,,,,,,,,,,57
343,73,10.1016/j.intermet.2011.01.004,MoNbTaVW,BCC,S,AC,,12.4,,C,1000.0,842.0,,19,,,,,,,,,,,,57
344,73,10.1016/j.intermet.2011.01.004,MoNbTaVW,BCC,S,AC,,12.4,,C,1200.0,735.0,,7.5,,,,,,,,,,,,57
345,73,10.1016/j.intermet.2011.01.004,MoNbTaVW,BCC,S,AC,,12.4,,C,1400.0,656.0,,40,,,,,,,,,,,,57
346,73,10.1016/j.intermet.2011.01.004,MoNbTaVW,BCC,S,AC,,12.4,,C,1600.0,477.0,,40,,,,,,,,,,,,57
347,73,10.1016/j.intermet.2011.01.004,MoNbTaW,BCC,S,AC,200,13.7,454.0,C,25.0,1058.0,1211.0,2,,258.0,,,,,,,,,,57
348,73,10.1016/j.intermet.2011.01.004,MoNbTaW,BCC,S,AC,,13.8,,C,600.0,561.0,,40,,,,,,,,,,,,57
349,73,10.1016/j.intermet.2011.01.004,MoNbTaW,BCC,S,AC,,13.8,,C,800.0,552.0,,40,,,,,,,,,,,,57
350,73,10.1016/j.intermet.2011.01.004,MoNbTaW,BCC,S,AC,,13.8,,C,1000.0,548.0,,40,,,,,,,,,,,,57
351,73,10.1016/j.intermet.2011.01.004,MoNbTaW,BCC,S,AC,,13.8,,C,1200.0,506.0,,40,,,,,,,,,,,,57
352,73,10.1016/j.intermet.2011.01.004,MoNbTaW,BCC,S,AC,,13.8,,C,1400.0,421.0,,40,,,,,,,,,,,,57
353,73,10.1016/j.intermet.2011.01.004,MoNbTaW,BCC,S,AC,,13.8,,C,1600.0,405.0,,40,,,,,,,,,,,,57
354,74,10.1016/j.matdes.2015.06.072,Mo0.3NbTiVZr,BCC,S,A,,6.7,,C,25.0,1289.0,,,42.0,,,,,,not obvious which are annealed vs. as-cast; plastic strain ,,,,,58
355,74,10.1016/j.matdes.2015.06.072,Mo0.5NbTiVZr,BCC,S,A,,6.8,,C,25.0,1473.0,,,32.0,,,,,,,,,,,58
356,74,10.1016/j.matdes.2015.06.072,Mo0.7NbTiVZr,BCC,S,A,,7.0,,C,25.0,1706.0,,,32.0,,,,,,,,,,,58
357,74,10.1016/j.matdes.2015.06.072,Mo1.3NbTiVZr,BCC,S,A,,7.3,,C,25.0,1496.0,,,30.0,,,,,,,,,,,58
358,74,10.1016/j.matdes.2015.06.072,Mo1.5NbTiVZr,BCC,S,A,,7.4,,C,25.0,1603.0,,,20.0,,,,,,,,,,,58
359,74,10.1016/j.matdes.2015.06.072,Mo1.7NbTiVZr,BCC,S,A,,7.5,,C,25.0,1645.0,,,15.0,,,,,,,,,,,58
360,74,10.1016/j.matdes.2015.06.072,Mo2NbTiVZr,BCC,S,A,,7.6,,C,25.0,1765.0,,,12.0,,,,,,,,,,,58
361,74,10.1016/j.matdes.2015.06.072,MoNbTiVZr,BCC,S,A,,7.1,,C,25.0,1779.0,,,32.0,,,,,,,,,,,58
362,74,10.1016/j.matdes.2015.06.072,NbTiV0.3MoZr,BCC,S,A,,7.3,,C,25.0,1455.0,,,25.0,,,,,,,,,,,58
363,74,10.1016/j.matdes.2015.06.072,NbTiV0.3Mo0.1Zr,BCC,S,A,,6.6,,C,25.0,932.0,,,45.0,,,,,,,,,,,58
364,74,10.1016/j.matdes.2015.06.072,NbTiV0.3Mo0.3Zr,BCC,S,A,,6.8,,C,25.0,1312.0,,,50.0,,,,,,,,,,,58
365,74,10.1016/j.matdes.2015.06.072,NbTiV0.3Mo0.5Zr,BCC,S,A,,6.9,,C,25.0,1301.0,,,43.0,,,,,,,,,,,58
[...]
742,J92,10.1016/j.msea.2019.05.078,CoCrFeNiMo0.15,FCC,S,CR+A,,,,T,25.0,1136 $\pm$ 3,1245 $\pm$ 0.8,,8.7 $\pm$ 0.7,,,,,,,,,,,261
743,J92,10.1016/j.msea.2019.05.078,CoCrFeNiMo0.15,FCC,S,CR+A,,,,T,25.0,1301 $\pm$ 28,1493 $\pm$ 30,,7.2 $\pm$ 0.5,,,,,,,,,,,261
744,J92,10.1016/j.msea.2019.05.078,CoCrFeNiMo0.15,,,CR+A,,,,T,25.0,1311 $\pm$ 14,1421 $\pm$ 27,,5.9 $\pm$ 0.3,,,,,,,,,,,261
745,J92,10.1016/j.msea.2019.05.078,CoCrFeNiMo0.15,,,CR+A,,,,T,25.0,1273 $\pm$ 16,1458 $\pm$ 28,,5.5 $\pm$ 0.4,,,,,,,,,,,261
746,J93,10.1016/j.msea.2019.05.003,CuNi1.01Si0.28Co0.14Cr0.45,,M,CR+A,,,142.5,T,25.0,777,810,3.4,,,,,,,added multiphase,,,,,262
747,J93,10.1016/j.msea.2019.05.003,CuNi1.01Si0.28Co0.14Cr0.45,,M,CR+A,,,147.4,,,,,,,,,,,,added multiphase,,,,,262
748,J93,10.1016/j.msea.2019.05.003,CuNi1.01Si0.28Co0.14Cr0.45,,M,CR+A,,,155.2,,,,,,,,,,,,added multiphase,,,,,262
749,J95,10.1038/s41467-019-10533-1,Co33W07Al33Nb24Cr03,,,AC,,,1084,,25.0,,,,,,,,,,,,,,,263
750,J95,10.1038/s41467-019-10533-1,Ti18Ni24Ta12Cr22Co24,,,AC,,,1011,,25.0,,,,,,,,,,,,,,,263
751,J95,10.1038/s41467-019-10533-1,Co6W9Al36Mo38Ni11,,,AC,,,725,,25.0,,,,,,,,,,,,,,,263
752,J95,10.1038/s41467-019-10533-1,Ni47Co02Ta12Ti9Nb30,,,AC,,,815,,25.0,,,,,,,,,,,,,,,263
753,J95,10.1038/s41467-019-10533-1,Ti44Ni02Nb21Cr21Co12,,,AC,,,422,,25.0,,,,,,,,,,,,,,,263
754,J95,10.1038/s41467-019-10533-1,Ti32Nb9Ta01Cr19Co39,,,AC,,,856,,25.0,,,,,,,,,,,,,,,263
755,J95,10.1038/s41467-019-10533-1,Ti39W04Nb31Ta04Co22,,,AC,,,277,,25.0,,,,,,,,,,,,,,,263
756,J98,10.1016/j.jmst.2018.12.014,AlCoCuFeNi0.5,FCC + BCC + B2,M,AC,,,430.9,C,25.0,929,,13.7,,,,,,,,,,,,264
757,J98,10.1016/j.jmst.2018.12.014,AlCoCuFeNi0.8,FCC + BCC + B2,M,AC,,,420,C,25.0,1021,,12.3,,,,,,,,,,,,264
758,J98,10.1016/j.jmst.2018.12.014,AlCoCuFeNi,FCC + BCC + B2,M,AC,,,391.4,C,25.0,994,,24.5,,,,,,,,,,,,264
759,J98,10.1016/j.jmst.2018.12.014,AlCoCuFeNi1.5,FCC + BCC + B2,M,AC,,,323.8,C,25.0,680,,35.9,,,,,,,,,,,,264
760,J98,10.1016/j.jmst.2018.12.014,AlCoCuFeNi2,FCC + BCC + B2,M,AC,,,299.2,C,25.0,544,,,,,,,,,,,,,,264
761,J98,10.1016/j.jmst.2018.12.014,AlCoCuFeNi3,FCC,S,AC,,,279.6,C,25.0,268,,,,,,,,,,,,,,264
762,J100,10.1016/j.msea.2019.04.104,Al0.5CrFeMnNi,BCC + B2,M,AC,,,353,C,25.0,1091,,50,,,,,,,,,,,,99
763,J100,10.1016/j.msea.2019.04.104,Al0.6CrFeMnNi,BCC + B2,M,AC,,,361,C,25.0,1130,,53,,,,,,,,,,,,99
764,J100,10.1016/j.msea.2019.04.104,Al0.7CrFeMnNi,BCC + B2,M,AC,,,375,C,25.0,1170,,55,,,,,,,,,,,,99
765,J100,10.1016/j.msea.2019.04.104,Al0.8CrFeMnNi,BCC + B2,M,AC,,,386,C,25.0,1200,,55,,,,,,,,,,,,99
766,J102,10.1016/j.jmmm.2019.01.096,FeCoNiCr0.2Si0.2,FCC,S,AC,,,130.1,T,25.0,225,732,61,,,,,,,,,,,,100
767,J102,10.1016/j.jmmm.2019.01.096,FeCoNiCr0.2Si0.2,FCC,S,HR,,,318.2,T,25.0,705,1070,10,,,,,,,changed processing to hot rolling,,,,,100
768,J102,10.1016/j.jmmm.2019.01.096,FeCoNiCr0.2Si0.2,FCC,S,HR + A,,,153.8,T,25.0,320,920,60,,,,,,,changed processing to hot rolling,,,,,100
769,J105,10.1038/s41598-019-43329-w,Al65Cu5Mg5Si15Zn5Fe5,FCC,S,AC,,,,C,25.0,422 $\pm$ 75,,1,,,88.7 $\pm$ 0.4,,,,,,,3.08,,101
770,J105,10.1038/s41598-019-43329-w,Al65Cu5Mg5Si15Zn5Ni5,FCC,S,AC,,,,C,25.0,534 $\pm$ 4,,1,,,107.8 $\pm$ 17,,,,,,,3.15,,101
771,J105,10.1038/s41598-019-43329-w,Al65Cu5Mg5Si15Zn5Cr5,FCC,S,AC,,,,C,25.0,490 $\pm$ 18,,6,,,78.4 $\pm$ 3,,,,,,,3.06,,101
772,J105,10.1038/s41598-019-43329-w,Al65Cu5Mg5Si15Zn5Mn5,FCC,S,AC,,,,C,25.0,622 $\pm$ 15,,2,,,114.1 $\pm$ 2,,,,,,,2.98,,101
773,J105,10.1038/s41598-019-43329-w,Al65Cu5Mg5Si15Zn5Zr5,FCC + Laves,M,AC,,,,C,25.0,565 $\pm$ 79,,4,,,105.1 $\pm$ 27,,,,,,,3.06,,101
774,J106,10.3390/e21050448,CoCrFeNiMo0.2,FCC,S,AC,,,,T,25.0,400,780,53,,,,,,,"For some reason, missing Yield Strength data",,,,,102
775,J106,10.3390/e21050448,CoCrFeNiMo0.2,FCC,S,A,,,,T,25.0,,838,43,,,,,,,,,,,,102
776,J106,10.3390/e21050448,CoCrFeNiMo0.2,FCC,S,A,,,,T,25.0,,899,31,,,,,,,,,,,,102
777,J106,10.3390/e21050448,CoCrFeNiMo0.2,FCC,S,A,,,,T,25.0,,902,29,,,,,,,,,,,,102
778,J106,10.3390/e21050448,CoCrFeNiMo0.2,FCC,S,A,,,,T,25.0,,811,52,,,,,,,,,,,,102
779,J106,10.3390/e21050448,CoCrFeNiMo0.2,FCC,S,A,,,,T,25.0,,790,49,,,,,,,,,,,,102
780,J106,10.3390/e21050448,CoCrFeNiMo0.2,FCC,S,A,,,,T,25.0,,799,47,,,,,,,,,,,,102
781,J106,10.3390/e21050448,CoCrFeNiMo0.2,FCC,S,A,,,,T,25.0,,802,37,,,,,,,,,,,,102
782,J106,10.3390/e21050448,CoCrFeNiMo0.2,FCC,S,A,,,,T,25.0,,823,36,,,,,,,,,,,,102
783,J106,10.3390/e21050448,CoCrFeNiMo0.2,FCC,S,A,,,,T,25.0,,849,34,,,,,,,,,,,,102
784,J106,10.3390/e21050448,CoCrFeNiMo0.2,FCC,S,A,,,,T,25.0,,895,32,,,,,,,,,,,,102
785,J107,10.3390/ma12071136,Al19.9Li30Mg35Si10Ca5Y0.1,,M,AC,,,,C,25.0,556,,3,,,,,,,changed to multiphase,,,1.7,,103
786,J107,10.3390/ma12071136,Al15Li35Mg35Ca10Si5,,M,AC,,,,C,25.0,418,,13,,,,,,,changed to multiphase,,,1.57,,103
787,J107,10.3390/ma12071136,Al15Li38Mg48Ca1 Si1,,M,AC,,,,C,25.0,360,,9,,,,,,,corrected the name; changed to multiphase,,,1.52,,103
788,J107,10.3390/ma12071136,Al15Li38Mg45Ca0.5Si1.5,,M,AC,,,,C,25.0,342,,44,,,,,,,changed to multiphase,,,1.5,,103
789,J107,10.3390/ma12071136,Al15Li39Mg45Ca0.5Si0.5,,M,AC,,,,C,25.0,300,,63,,,,,,,changed to multiphase,,,1.46,,103
790,J109,10.3390/e21030288,CoCrFeNiPd,FCC,S,AC,,,295,,,,,,,,,,,,,,,,,104
791,J109,10.3390/e21030288,CoCrFeNiPdMn0.2,FCC + IM,M,AC,,,470,C,25.0,650,,50,,,,,,,changed to multiphase,,,,,104
792,J109,10.3390/e21030288,CoCrFeNiPdMn0.4,FCC + IM,M,AC,,,380,C,25.0,650,,46,,,,,,,changed to multiphase,,,,,104
793,J109,10.3390/e21030288,CoCrFeNiPdMn0.6,FCC + IM,M,AC,,,180,C,25.0,650,,42,,,,,,,changed to multiphase,,,,,104
794,J109,10.3390/e21030288,CoCrFeNiPdMn0.8,FCC + IM,M,AC,,,160,C,25.0,650,,35,,,,,,,changed to multiphase,,,,,104
795,J110,10.1016/j.scriptamat.2018.12.021,Al0.3CoCrFeMnNi,,,SPS,,,,,,,,,,,,,,,Skipped,,,,,106
796,J111,10.1557/jmr.2019.40,CrFeNiTi0.2,BCC + FCC,M,AC,,,362.2,C,25.0,2297.94,,5.8,,,,,,,,,,,,107
797,J111,10.1557/jmr.2019.40,CrFeNiTi0.3,BCC + FCC,M,AC,,,510.3,C,25.0,2364.63,,,,,,,,,corrected elongations,,,,,107
798,J111,10.1557/jmr.2019.40,CrFeNiTi0.4,BCC,S,AC,,,600.3,C,25.0,2475.41,,6.5,,,,,,,corrected elongations,,,,,107
799,J111,10.1557/jmr.2019.40,CrFeNiTi0.5,BCC,S,AC,,,709.6,C,25.0,2380.79,,,,,,,,,corrected elongations,,,,,107
800,J111,10.1557/jmr.2019.40,CrFeNiTi0.6,BCC,S,AC,,,718.2,C,25.0,1923.15,,,,,,,,,corrected elongations,,,,,107
801,J112,10.1557/jmr.2019.18,AlCuCrFeMn,sigma + FeMn,M,SPS,,,633,C,25.0,1010,,,,,,,,,fixed strength,,,,,108
802,J112,10.1557/jmr.2019.18,AlCuCrFeMnW0.05,BCC + sigma + FeMn,M,SPS,,,680,C,25.0,1120,,,,,,,,,fixed strength,,,,,108
803,J112,10.1557/jmr.2019.18,AlCuCrFeMnW0.1,BCC + sigma + FeMn,M,SPS,,,705,C,25.0,1250,,,,,,,,,fixed strength,,,,,108
804,J112,10.1557/jmr.2019.18,AlCuCrFeMnW0.5,BCC + sigma + FeMn,M,SPS,,,780,C,25.0,1510,,,,,,,,,fixed strength,,,,,108
805,J113,10.1557/jmr.2019.36,FeCoNiCuNb0.5,FCC + Laves,M,HR,,,,,,,,,,,,,,,No data for FeCoNiCuNb0.5,,,,,109
806,J113,10.1557/jmr.2019.36,FeCoNiCuNb5,FCC + Laves,M,HR,,,,C,25.0,1498,,37.6,,,,,,,fixed processing to HR,,,,,109
807,J113,10.1557/jmr.2019.36,FeCoNiCuNb7.5,FCC + Laves,M,HR,,,,C,25.0,1635,,31.7,,,,,,,fixed processing to HR,,,,,109
808,J113,10.1557/jmr.2019.36,FeCoNiCuNb11.6,FCC + Laves,M,HR,,,,C,25.0,1703,,18.3,,,,,,,fixed processing to HR,,,,,109
809,J113,10.1557/jmr.2019.36,FeCoNiCuNb15,FCC + Laves,M,HR,,,,C,25.0,1415,,12.6,,,,,,,fixed processing to HR,,,,,109
810,J115,10.1016/j.msea.2019.01.088,Fe50Mn30Co10Cr10,FCC + BCP,M,AC,,,296 $\pm$ 24,,,,,,,,,,,,No mechanical data,,,,,110
811,J115,10.1016/j.msea.2019.01.088,Fe49.7Mn30Co10Cr10B0.3,FCC + BCP,M,AC,,,282 $\pm$ 15,,,,,,,,,,,,,,,,,110
812,J115,10.1016/j.msea.2019.01.088,Fe49.4Mn30Co10Cr10B0.6,FCC + BCP,M,AC,,,306 $\pm$ 24,,,,,,,,,,,,,,,,,110
813,J115,10.1016/j.msea.2019.01.088,Fe48.3Mn30Co10Cr10B1.7,FCC + BCP,M,AC,,,452 $\pm$ 51,,,,,,,,,,,,,,,,,110
814,J116,10.1016/j.msea.2019.01.083,Fe40.4Ni11.3Mn34.8Al7.5Cr6,,,AC,,,,T,25.0,159 $\pm$ 11,535 $\pm$ 21,,40.8 $\pm$ 3,,,,,,,,,,,111
815,J116,10.1016/j.msea.2019.01.083,Fe40.4Ni11.3Mn34.8Al7.5Cr6,,M,A,,,,T,25.0,409 $\pm$ 12,584 $\pm$ 26,,10.5 $\pm$ 3,,,,,,marked as multiphase,,,,,111
816,J116,10.1016/j.msea.2019.01.083,(Fe40.4Ni11.3Mn34.8Al7.5Cr6)98.9C1.1,,,AC,,,,T,25.0,355 $\pm$ 7,1174 $\pm$ 19,,49.5 $\pm$ 0.6,,,,,,,,,,,111
817,J116,10.1016/j.msea.2019.01.083,(Fe40.4Ni11.3Mn34.8Al7.5Cr6)98.9C1.1,,M,A,,,,T,25.0,954 $\pm$ 49,978 $\pm$ 39,,2 $\pm$ 0.2,,,,,,marked as multiphase,,,,,111
818,J117,10.1007/s00339-019-2484-1,TiZrHf,2HCP,M,AC,,,211,C,25.0,773,,17,,,,,,,changed to two HCP phases,,,,,112
819,J117,10.1007/s00339-019-2484-1,TiZrHfSc,2HCP,M,AC,,,233,C,25.0,1001,,21.9,,,,,,,changed to two HCP phases,,,,,112
820,J117,10.1007/s00339-019-2484-1,TiZrHfY,2HCP,M,AC,,,241,C,25.0,554,,17.7,,,,,,,changed to two HCP phases,,,,,112
821,J117,10.1007/s00339-019-2484-1,TiZrHfScY,2HCP,M,AC,,,256,C,25.0,793,,15.7,,,,,,,changed to two HCP phases,,,,,112
822,J118,10.1007/s10853-018-03196-8,NiCoFeCrGa,FCC + BCC,M,AC,,,,,,,,,,,,,,,Induction Melting,,,,,113
823,J119,10.1007/s00339-019-2506-z,Co30Cr10Fe10Al18Ni32,FCC + BCC,M,AC,,,305.4 $\pm$ 6.1,C,25.0,1129.4,,16.7,,,,,,,,,,,,114
824,J119,10.1007/s00339-019-2506-z,Co30Cr10Fe10Al18Ni31Mo1,FCC + BCC,M,AC,,,357.3 $\pm$ 9.4,C,25.0,1159.7,,18.2,,,,,,,,,,,,114
825,J119,10.1007/s00339-019-2506-z,Co30Cr10Fe10Al18Ni30Mo2,FCC + BCC,M,AC,,,362.6 $\pm$ 8.2,C,25.0,1250.8,,14.7,,,,,,,,,,,,114
826,J119,10.1007/s00339-019-2506-z,Co30Cr10Fe10Al18Ni29Mo3,FCC + BCC,M,AC,,,359.7 $\pm$ 4.7,C,25.0,1198.3,,14.5,,,,,,,,,,,,114
827,J120,10.3390/met9030351,Fe24.1Co24.1Cr24.1Ni24.1Mo3.6,FCC + sigma,M,SPS,,,210,,,,,,,,,,,,"No mechanical data, changed to multiphase",,,,,116
828,J121,10.1007/s11665-018-3837-1,CoCrCuFeNi,FCC,S,AC,,,,C,25.0,300,,50.2,,,,,,,,,,,,117
829,J121,10.1007/s11665-018-3837-1,(CoCrCuFeNi)96V4,FCC + Cu phase,M,AC,,,,C,25.0,303,,50.2,,,,,,,changed to multiphase,,,,,117
830,J121,10.1007/s11665-018-3837-1,(CoCrCuFeNi)92V8,FCC + Cu phase,M,AC,,,,C,25.0,307,,50.2,,,,,,,changed to multiphase,,,,,117
831,J121,10.1007/s11665-018-3837-1,(CoCrCuFeNi)88V12,FCC + Sigma + Cu phase,M,AC,,,,C,25.0,330,,50.2,,,,,,,changed to multiphase,,,,,117
832,J121,10.1007/s11665-018-3837-1,(CoCrCuFeNi)84V16,FCC + Sigma + Cu phase,M,AC,,,,C,25.0,616,,28,,,,,,,changed to multiphase,,,,,117
833,J122,10.3390/e21020122,CoCrNiCuZn,FCC,S,SPS,500,,,C,25.0,,,,,,,,,,,,,5.26,,118
834,J122,10.3390/e21020122,CoCrNiCuZn,FCC,S,SPS,500,,,C,25.0,,,,,,,,,,,,,6.26,,118
835,J122,10.3390/e21020122,CoCrNiCuZn,FCC,S,SPS,500,,,C,25.0,,,,,,,,,,,,,7.84,,118
836,J122,10.3390/e21020122,CoCrNiCuZn,FCC,S,SPS,500,,615,C,25.0,,,,,,,,,,,,,7.89,,118
837,J123,10.3390/e21020114,HfNbTaTiZr,BCC,S,AC,500,,359,T,25.0,1155,1212,12.3,,,59,,,,,,,,,119
838,J123,10.3390/e21020114,NbTaTiZr,BCC,S,AC,500,,358,T,25.0,1144,1205,6.4,,,98,,,,,,,,,119
839,J123,10.3390/e21020114,NbTaTi,BCC,S,AC,500,,246,T,25.0,620,683,18.5,,,143,,,,,,,,,119
840,J123,10.3390/e21020114,TaTiZr,BCC + ,M,AC,500,,485,T,25.0,,284,0,,,157,,,,changed to multiphase,,,,,119
841,J123,10.3390/e21020114,NbTiZr,BCC,S,AC,500,,295,T,25.0,956,991,14.2,,,88,,,,,,,,,119
842,J123,10.3390/e21020114,Nb1.5TaTiZr0.5,BCC + ,M,AC,500,,294,T,25.0,822,852,0.33,,,127,,,,changed to multiphase,,,,,119
843,J123,10.3390/e21020114,Nb0.5TaTiZr1.5,BCC + ,M,AC,500,,489,T,25.0,,843,0,,,93,,,,changed to multiphase,,,,,119
844,J124,10.1016/j.msea.2018.12.020,AgAlNbTiZn,,M,A,,,,,,,,,,,,,,,changed to multiphase,,,4.75,,120
845,J124,10.1016/j.msea.2018.12.020,AgAlNbTiZn,,M,A,,,,,,,,,,,,,,,changed to multiphase,,,5.78,,120
846,J124,10.1016/j.msea.2018.12.020,AgAlNbTiZn,,M,A,,,,,,,,,,,,,,,changed to multiphase,,,5.79,,120
847,J124,10.1016/j.msea.2018.12.020,AgAlNbTiZn,,M,A,,,,,,,,,,,,,,,changed to multiphase,,,5.51,,120
848,J124,10.1016/j.msea.2018.12.020,AgAlNbTiZn,,M,A,,,,,,,,,,,,,,,changed to multiphase,,,,,120
849,J125,10.1155/2019/2157592,Fe31Mn28 Ni15Al24,,,AC,,,310,,,,,,,,,,,,,,,,,121
850,J125,10.1155/2019/2157592,Fe31Mn28 Ni15Al24Ti0.8,,,AC,,,330,,,,,,,,,,,,,,,,,121
851,J125,10.1155/2019/2157592,Fe31Mn28 Ni15Al24Ti3,,,AC,,,500,,,,,,,,,,,,,,,,,121
852,J125,10.1155/2019/2157592,Fe31Mn28 Ni15Al24,,,A,,,340,,,,,,,,,,,,,,,,,121
853,J125,10.1155/2019/2157592,Fe31Mn28 Ni15Al24Ti0.8,,,A,,,410,,,,,,,,,,,,,,,,,121
854,J125,10.1155/2019/2157592,Fe31Mn28 Ni15Al24Ti3,,,A,,,495,,,,,,,,,,,,,,,,,121
855,J125,10.1155/2019/2157592,Fe31Mn28 Ni15Al24,,,A,,,330,,,,,,,,,,,,,,,,,121
856,J125,10.1155/2019/2157592,Fe31Mn28 Ni15Al24Ti0.8,,,A,,,330,,,,,,,,,,,,,,,,,121
857,J125,10.1155/2019/2157592,Fe31Mn28 Ni15Al24Ti3,,,A,,,490,,,,,,,,,,,,,,,,,121
858,J126,10.1080/00325899.2019.1576389,AlCrFeNiCoC,FCC + BCC,M,SPS,,,,,,,,,,,,,,,,,,,,122
859,J128,10.1007/s11106-019-00012-z,CrFeNiCuTi,FCC + BCC,M,AC,,,,,,,,,,,,,,,No Mechanical Data,,,,,123
860,J128,10.1007/s11106-019-00012-z,CrFeNiCuTi,FCC + BCC,M,HF + A,,,,,,,,,,,,,,,,,,,,123
861,J128,10.1007/s11106-019-00012-z,CrFeNiCuTi,FCC + BCC,M,HF + A,,,,,,,,,,,,,,,,,,,,123
862,J128,10.1007/s11106-019-00012-z,CrFeNiCuTi,FCC + BCC,M,HF + A,,,,,,,,,,,,,,,,,,,,123
863,J129,10.1080/00325899.2018.1554834,CrMnFeCoNi,FCC  ,S,SPS,0.03,,435 $\pm$ 25,C,25.0,1100,,47,,,,,,,,,,7.753,,124
864,J130,10.1007/s11665-018-3822-8,CuCrFeNiAl0.5,FCC,S,AC,,,226,,,,,,,,,,,,,,,,,126
865,J130,10.1007/s11665-018-3822-8,CuCrFeNiAl0.5,FCC,S,CR + A,,,287,,,,,,,,,,,,,,,,,126
866,J131,10.3390/e21010015,HfMoNbTaTiZr,BCC,S,AC,,,,C,25.0,1512,,12,,,,,,,,,,,,127
867,J131,10.3390/e21010015,HfMoTaTiZr,BCC,S,AC,,,,C,25.0,1600,,4,,,,,,,,,,,,127
868,J131,10.3390/e21010015,HfMoNbTiZr,BCC,S,AC,,,,C,25.0,1351,,20,,,,,,,,,,,,127
869,J131,10.3390/e21010015,HfMoNbTaZr,BCC,S,AC,,,,C,25.0,1524,,16,,,,,,,,,,,,127
870,J131,10.3390/e21010015,HfMoNbTaTi ,BCC,S,AC,,,,C,25.0,1369,,27,,,,,,,,,,,,127
871,J131,10.3390/e21010015,HfMoNbTaTiZr,BCC,S,AC,,,,C,800.0,1007,,,,,,,,,,,,,,127
872,J131,10.3390/e21010015,HfMoTaTiZr,BCC,S,AC,,,,C,800.0,1045,,,,,,,,,,,,,,127
873,J131,10.3390/e21010015,HfMoNbTiZr,BCC,S,AC,,,,C,800.0,829,,,,,,,,,,,,,,127
874,J131,10.3390/e21010015,HfMoNbTaZr,BCC,S,AC,,,,C,800.0,1005,,,,,,,,,,,,,,127
875,J131,10.3390/e21010015,HfMoNbTaTi ,BCC,S,AC,,,,C,800.0,822,,,,,,,,,,,,,,127
876,J131,10.3390/e21010015,HfMoNbTaTiZr,BCC,S,AC,,,,C,1000.0,814,,,,,,,,,,,,,,127
877,J131,10.3390/e21010015,HfMoTaTiZr,BCC,S,AC,,,,C,1000.0,855,,,,,,,,,,,,,,127
878,J131,10.3390/e21010015,HfMoNbTiZr,BCC,S,AC,,,,C,1000.0,721,,,,,,,,,,,,,,127
879,J131,10.3390/e21010015,HfMoNbTaZr,BCC,S,AC,,,,C,1000.0,927,,,,,,,,,,,,,,127
880,J131,10.3390/e21010015,HfMoNbTaTi ,BCC,S,AC,,,,C,1000.0,778,,,,,,,,,,,,,,127
881,J131,10.3390/e21010015,HfMoNbTaTiZr,BCC,S,AC,,,,C,1200.0,556,,,,,,,,,,,,,,127
882,J131,10.3390/e21010015,HfMoTaTiZr,BCC,S,AC,,,,C,1200.0,404,,,,,,,,,,,,,,127
883,J131,10.3390/e21010015,HfMoNbTiZr,BCC,S,AC,,,,C,1200.0,301,,,,,,,,,,,,,,127
884,J131,10.3390/e21010015,HfMoNbTaZr,BCC,S,AC,,,,C,1200.0,694,,,,,,,,,,,,,,127
885,J131,10.3390/e21010015,HfMoNbTaTi ,BCC,S,AC,,,,C,1200.0,699,,,,,,,,,,,,,,127
886,J131,10.3390/e21010015,HfMoNbTaZr,BCC,S,AC,,,,C,1400.0,278,,,,,,,,,,,,,,127
887,J131,10.3390/e21010015,HfMoNbTaTi ,BCC,S,AC,,,,C,1400.0,367,,,,,,,,,,,,,,127
888,J132,10.3390/coatings9010016,CoCrFeNi,FCC,S,VHP,0.0276,,,,,,,,,,,,,,,,,,,128
889,J132,10.3390/coatings9010016,(CoCrFeNi)0.9(WC)0.1,FCC,S,VHP,0.0189,,475,,,,,,,,,,,,,,,7.24 $\pm$ 0.02,,128
890,J132,10.3390/coatings9010016,(CoCrFeNi)0.7(WC)0.3,FCC,S,VHP,0.0182,,531,,,,,,,,,,,,,,,8.39 $\pm$ 0.03,,128
891,J133,10.5755/j01.ms.25.3.19452,Al0.4FeCrCo1.5NiTi0.3,FCC + BCC,M,SPS,,,515 $\pm$ 16,C,25.0,2012 $\pm$ 20,,,17.52 $\pm$ 0.5,,,,,,,,,,,129
892,J134,10.1007/s11661-018-4646-8,HfNbTaTiZr,BCC,S,AC,,,,T,25.0,1438,1218,5,,,91.5,,,,Hot Isostatically Pressed,,,,,130
893,J134,10.1007/s11661-018-4646-8,HfNbTaTiZr,BCC,S,HIP + CR + A,,,,T,25.0,1159,1127,4.7,,,99.2,,,,these are true strains but it's close enough ,,,,,130
894,J134,10.1007/s11661-018-4646-8,HfNbTaTiZr,BCC,S,HIP + CR + A,,,,T,25.0,1134,1134,7.6,,,109.1,,,,,,,,,130
895,J134,10.1007/s11661-018-4646-8,HfNbTaTiZr,BCC,S,HIP + CR + A,,,,T,25.0,1094,1066,6,,,105.3,,,,,,,,,130
896,J134,10.1007/s11661-018-4646-8,HfNbTaTiZr,BCC,S,HIP + CR + A,,,,T,25.0,1071,964,4.6,,,91.6,,,,,,,,,130
897,J134,10.1007/s11661-018-4646-8,HfNbTaTiZr,BCC,S,HIP + CR + A,24.4,,,T,25.0,1107,977,13.9,,,92.6,,,,,,,,,130
898,J134,10.1007/s11661-018-4646-8,HfNbTaTiZr,BCC,S,HIP + CR + A,31.3,,,T,25.0,1115,830,18.5,,,92.6,,,,,,,,,130
899,J134,10.1007/s11661-018-4646-8,HfNbTaTiZr,BCC,S,HIP + CR + A,38.4,,,T,25.0,1114,935,12.2,,,101.3,,,,,,,,,130
900,J134,10.1007/s11661-018-4646-8,HfNbTaTiZr,BCC,S,HIP + CR + A,50.1,,,,,,,,,,,,,,,,,,,130
901,J134,10.1007/s11661-018-4646-8,HfNbTaTiZr,BCC,S,HIP + CR + A,21.9,,,,,,,,,,,,,,,,,,,130
902,J134,10.1007/s11661-018-4646-8,HfNbTaTiZr,BCC,S,HIP + CR + A,75.5,,,,,,,,,,,,,,,,,,,130
903,J135,10.1080/02670836.2018.1446267,AlNbTiZr,B2,S,AC,250,,422 $\pm$ 15,C,25.0,1509,,8.6,,,,,,,,,,5.85,,131
904,J135,10.1080/02670836.2018.1446267,AlNbTiZr,B2 + Zr5Al3,M,A,,,418 $\pm$ 15,C,25.0,1579,,17.8,,,,,,,,,,,,131
905,J135-18,10.1016/j.matlet.2015.08.099,AlNbTiVZr0.5,,,,,,,C,25.0,1480,,>50,,,,,,,,,,5.64,,132
906,J135-19,10.1179/1743284715Y.0000000032,AlNbTiZr,,,,,,539.6,C,25.0,1080,,5.9,,,,,,,,,,5.79,,133
907,J135-24,10.1016/j.actamat.2012.11.032,NbTiVZr,,,,,,335,C,25.0,1105,,>50,,,,,,,,,,6.52,,134
908,J135-24,10.1016/j.actamat.2012.11.032,CrNbTiZr,,,,,,418,C,25.0,1260,,6,,,,,,,,,,6.67,,134
909,new_ref_2,10.1002/maco.201709833,AlCrFeNiMo0.5,BCC+B2,M,AC,,,623.7,C,25.0,1914.1,4023.6,27.9,,,,,,,,,,,,265
910,new_ref_2,10.1002/maco.201709833,AlCrFeNiMo0.5Ti0.25,BCC+B2,M,AC,,,712,C,25.0,2161.7,3641.5,14.3,,,,,,,,,,,,265
911,new_ref_2,10.1002/maco.201709833,AlCrFeNiMo0.5Ti0.4,BCC+B2,M,AC,,,731.9,C,25.0,2185.1,3673.4,14.8,,,,,,,,,,,,265
912,new_ref_2,10.1002/maco.201709833,AlCrFeNiMo0.5Ti0.5,BCC+B2,M,AC,,,751.7,C,25.0,2228.7,3166.2,10.4,,,,,,,,,,,,265
913,new_ref_2,10.1002/maco.201709833,AlCrFeNiMo0.5Ti0.6,BCC+B2,M,AC,,,756.1,C,25.0,1314.5,1314.5,,,,,,,,,,,,,265
914,new_ref_2,10.1002/maco.201709833,AlCrFeNiMo0.5Ti0.75,BCC+B2,M,AC,,,766.2,C,25.0,618.8,618.8,,,,,,,,,,,,,265
915,new_ref_4,10.1016/j.matdes.2018.06.003,AlCrMoNb,Laves (C14)+A15,M,A,,,,,,,,,,,,,,,,,,,,266
916,new_ref_4,10.1016/j.matdes.2018.06.003,AlCrMoNb,Laves (C14)+A15,M,AC,,,,,,,,,,,,,,,,,,,,266
917,new_ref_4,10.1016/j.matdes.2018.06.003,AlHfNbTi,B2,S,A,,,,,,,,,,,,,,,,,,,,266
918,new_ref_4,10.1016/j.matdes.2018.06.003,AlHfNbTi,B2,S,AC,,,,,,,,,,,,,,,,,,,,266
919,new_ref_4,10.1016/j.matdes.2018.06.003,AlHfTaTi,B2,S,A,,,,,,,,,,,,,,,,,,,,266
920,new_ref_4,10.1016/j.matdes.2018.06.003,AlHfTaTi,B2,S,AC,,,,,,,,,,,,,,,,,,,,266
921,new_ref_4,10.1016/j.matdes.2018.06.003,AlMoNbTi,BCC+A15,M,A,,,,,,,,,,,,,,,,,,,,266
922,new_ref_4,10.1016/j.matdes.2018.06.003,AlMoNbTi,BCC,S,AC,,,509 $\pm$ 18,,,,,,,,,,,,,,,,,266
923,new_ref_4,10.1016/j.matdes.2018.06.003,AlNbTaTi,BCC+A15,M,A,,,,,,,,,,,,,,,,,,,,266
924,new_ref_4,10.1016/j.matdes.2018.06.003,AlNbTaTi,BCC,S,AC,,,458 $\pm$ 10,,,,,,,,,,,,,,,,,266
925,new_ref_4,10.1016/j.matdes.2018.06.003,CrMoTaTi,BCC,S,A,,,555 $\pm$ 24,,,,,,,,,,,,,,,,,266
926,new_ref_4,10.1016/j.matdes.2018.06.003,CrMoTaTi,BCC,S,AC,,,539 $\pm$ 32,,,,,,,,,,,,,,,,,266
927,new_ref_4,10.1016/j.matdes.2018.06.003,CrNbTaTi,BCC+Laves (C15),M,A,,,,,,,,,,,,,,,,,,,,266
928,new_ref_4,10.1016/j.matdes.2018.06.003,CrNbTaTi,BCC,S,AC,,,495 $\pm$ 26,,,,,,,,,,,,,,,,,266
929,new_ref_4,10.1016/j.matdes.2018.06.003,CrNbTiW,BCC+Laves (C15),M,A,,,630 $\pm$ 28,,,,,,,,,,,,,,,,,266
930,new_ref_4,10.1016/j.matdes.2018.06.003,CrNbTiW,BCC,S,AC,,,630 $\pm$ 24,,,,,,,,,,,,,,,,,266
931,new_ref_4,10.1016/j.matdes.2018.06.003,HfNbTaTi,BCC,S,A,,,280 $\pm$ 10,,,,,,,,,,,,,,,,,266
932,new_ref_4,10.1016/j.matdes.2018.06.003,HfNbTaTi,BCC,S,AC,,,270 $\pm$ 5,,,,,,,,,,,,,,,,,266
933,new_ref_4,10.1016/j.matdes.2018.06.003,MoNbTaTiW,BCC,S,A,,,482 $\pm$ 10,,,,,,,,,,,,,,,,,266
934,new_ref_4,10.1016/j.matdes.2018.06.003,MoNbTaTiW,BCC,S,AC,,,446 $\pm$ 32,,,,,,,,,,,,,,,,,266
935,new_ref_4,10.1016/j.matdes.2018.06.003,MoNbTaTi,BCC,S,A,,,407 $\pm$ 17,,,,,,,,,,,,,,,,,266
936,new_ref_4,10.1016/j.matdes.2018.06.003,MoNbTaTi,BCC,S,AC,,,431 $\pm$ 7,,,,,,,,,,,,,,,,,266