File: MPEA_dataset.csv
IDENTIFIER: Reference ID,FORMULA,PROPERTY: Microstructure,PROPERTY: Processing method,PROPERTY: BCC/FCC/other,PROPERTY: grain size ($\mu$m),PROPERTY: Exp. Density (g/cm$^3$),PROPERTY: Computed Density (g/cm$^3$),PROPERTY: HV,PROPERTY: Type of test,PROPERTY: Test temperature ($^\circ$C),PROPERTY: YS (MPa),PROPERTY: UTS (MPa),PROPERTY: Elongation (%),PROPERTY: Elongation plastic (%),PROPERTY: Exp. Young modulus (GPa),PROPERTY: Computed Young modulus (GPa),PROPERTY: O content (wppm),PROPERTY: N content (wppm),PROPERTY: C content (wppm),REFERENCE: doi,REFERENCE: year,REFERENCE: title
27,Al0.25 Co1 Fe1 Ni1,FCC,CAST,FCC,,,8.1,138.0,C,25.0,158.0,,,,,196,,,,10.1016/j.jmmm.2014.07.023,2014,Effects of Al and Si addition on the structure and properties of CoFeNi equal atomic ratio alloy
27,Al0.5 Co1 Fe1 Ni1,FCC+BCC,CAST,other,,,7.7,212.0,C,25.0,346.0,,,,,187,,,,10.1016/j.jmmm.2014.07.023,2014,Effects of Al and Si addition on the structure and properties of CoFeNi equal atomic ratio alloy
27,Al0.75 Co1 Fe1 Ni1,FCC+BCC,CAST,other,,,7.4,385.0,C,25.0,794.0,,,,,179,,,,10.1016/j.jmmm.2014.07.023,2014,Effects of Al and Si addition on the structure and properties of CoFeNi equal atomic ratio alloy
27,Al1 Co1 Fe1 Ni1,BCC,CAST,BCC,,,7.1,456.0,C,25.0,964.0,,,,,172,,,,10.1016/j.jmmm.2014.07.023,2014,Effects of Al and Si addition on the structure and properties of CoFeNi equal atomic ratio alloy
27,Co1 Fe1 Ni1,FCC,CAST,FCC,,,8.6,125.0,C,25.0,204.0,,,,,207,,,,10.1016/j.jmmm.2014.07.023,2014,Effects of Al and Si addition on the structure and properties of CoFeNi equal atomic ratio alloy
27,Co1 Fe1 Ni1,FCC,CAST,FCC,,,8.6,125.0,C,25.0,209.0,,,,,207,,,,10.1016/j.jmmm.2014.07.023,2014,Effects of Al and Si addition on the structure and properties of CoFeNi equal atomic ratio alloy
27,Co1 Fe1 Ni1 Si0.25,FCC,CAST,FCC,,,8.1,149.0,C,25.0,196.0,,,,,194,,,,10.1016/j.jmmm.2014.07.023,2014,Effects of Al and Si addition on the structure and properties of CoFeNi equal atomic ratio alloy
27,Co1 Fe1 Ni1 Si0.5,FCC+Sec.,CAST,other,,,7.7,287.0,C,25.0,476.0,,,,,184,,,,10.1016/j.jmmm.2014.07.023,2014,Effects of Al and Si addition on the structure and properties of CoFeNi equal atomic ratio alloy
27,Co1 Fe1 Ni1 Si0.75,FCC+Sec.,CAST,other,,,7.3,570.0,C,25.0,1301.0,,,,,175,,,,10.1016/j.jmmm.2014.07.023,2014,Effects of Al and Si addition on the structure and properties of CoFeNi equal atomic ratio alloy
37,Co1 Cr1 Fe1 Ni1,FCC,WROUGHT,FCC,24.0,,8.2,,T,25.0,274.0,708.0,39.0,,,225,,,,10.1016/j.actamat.2014.08.026,2014,Temperature dependence of the mechanical properties of equiatomic solid solution alloys with face-centered cubic crystal structures
37,Co1 Cr1 Mn1 Ni1,FCC,WROUGHT,FCC,36.0,,8.1,,T,25.0,282.0,694.0,44.0,,,222,,,,10.1016/j.actamat.2014.08.026,2014,Temperature dependence of the mechanical properties of equiatomic solid solution alloys with face-centered cubic crystal structures
37,Co1 Cr1 Ni1,FCC,WROUGHT,FCC,41.0,,8.3,,T,25.0,300.0,860.0,60.0,,,229,,,,10.1016/j.actamat.2014.08.026,2014,Temperature dependence of the mechanical properties of equiatomic solid solution alloys with face-centered cubic crystal structures
37,Co1 Fe1 Mn1 Ni1,FCC,WROUGHT,FCC,48.0,,8.3,,T,25.0,170.0,550.0,41.0,,,204,,,,10.1016/j.actamat.2014.08.026,2014,Temperature dependence of the mechanical properties of equiatomic solid solution alloys with face-centered cubic crystal structures
37,Co1 Fe1 Ni1,FCC,WROUGHT,FCC,28.0,,8.6,,T,25.0,211.0,513.0,31.0,,,207,,,,10.1016/j.actamat.2014.08.026,2014,Temperature dependence of the mechanical properties of equiatomic solid solution alloys with face-centered cubic crystal structures
37,Co1 Mn1 Ni1,FCC,WROUGHT,FCC,32.0,,8.4,,T,25.0,231.0,653.0,38.0,,,202,,,,10.1016/j.actamat.2014.08.026,2014,Temperature dependence of the mechanical properties of equiatomic solid solution alloys with face-centered cubic crystal structures
37,Fe1 Mn1 Ni1,FCC,WROUGHT,FCC,30.0,,8.1,,T,25.0,221.0,602.0,36.0,,,203,,,,10.1016/j.actamat.2014.08.026,2014,Temperature dependence of the mechanical properties of equiatomic solid solution alloys with face-centered cubic crystal structures
46,Co1 Cr1 Fe1 Nb0.103 Ni1,FCC+Laves (C14),CAST,other,175.0,,8.2,,T,25.0,318.0,622.0,19.0,,,222,,,,10.1016/j.intermet.2015.01.004,2015,Effects of Nb additions on the microstructure and mechanical property of CoCrFeNi high-entropy alloys
46,Co1 Cr1 Fe1 Nb0.155 Ni1,FCC+Laves (C14),CAST,other,175.0,,8.2,,T,25.0,322.0,744.0,23.0,,,220,,,,10.1016/j.intermet.2015.01.004,2015,Effects of Nb additions on the microstructure and mechanical property of CoCrFeNi high-entropy alloys
46,Co1 Cr1 Fe1 Nb0.206 Ni1,FCC+Laves (C14),CAST,other,175.0,,8.2,,T,25.0,403.0,807.0,9.0,,,219,,,,10.1016/j.intermet.2015.01.004,2015,Effects of Nb additions on the microstructure and mechanical property of CoCrFeNi high-entropy alloys
46,Co1 Cr1 Fe1 Nb0.309 Ni1,FCC+Laves (C14),CAST,other,175.0,,8.2,,T,25.0,479.0,879.0,4.0,,,216,,,,10.1016/j.intermet.2015.01.004,2015,Effects of Nb additions on the microstructure and mechanical property of CoCrFeNi high-entropy alloys
46,Co1 Cr1 Fe1 Nb0.412 Ni1,FCC+Laves (C14),CAST,other,175.0,,8.2,,T,25.0,638.0,1004.0,1.0,,,214,,,,10.1016/j.intermet.2015.01.004,2015,Effects of Nb additions on the microstructure and mechanical property of CoCrFeNi high-entropy alloys
46,Co1 Cr1 Fe1 Ni1,FCC,CAST,FCC,175.0,,8.2,,T,25.0,148.0,413.0,48.0,,,225,,,,10.1016/j.intermet.2015.01.004,2015,Effects of Nb additions on the microstructure and mechanical property of CoCrFeNi high-entropy alloys
54,Al0.25 Co1 Cr1 Fe1 Ni1,FCC,ANNEAL,FCC,,,7.9,110.0,,25.0,,,,,,216,,,,10.1016/j.jallcom.2009.08.090,2009,"Microstructure and mechanical property of as-cast, -homogenized, and -deformed AlxCoCrFeNi (0≤x≤2) high-entropy alloys"
54,Al0.25 Co1 Cr1 Fe1 Ni1,FCC,ANNEAL,FCC,,,7.9,113.0,,25.0,,,,,,216,,,,10.1016/j.jallcom.2009.08.090,2009,"Microstructure and mechanical property of as-cast, -homogenized, and -deformed AlxCoCrFeNi (0≤x≤2) high-entropy alloys"
54,Al0.375 Co1 Cr1 Fe1 Ni1,FCC,ANNEAL,FCC,,,7.7,131.0,,25.0,,,,,,211,,,,10.1016/j.jallcom.2009.08.090,2009,"Microstructure and mechanical property of as-cast, -homogenized, and -deformed AlxCoCrFeNi (0≤x≤2) high-entropy alloys"
54,Al0.375 Co1 Cr1 Fe1 Ni1,FCC,ANNEAL,FCC,,,7.7,196.0,,25.0,,,,,,211,,,,10.1016/j.jallcom.2009.08.090,2009,"Microstructure and mechanical property of as-cast, -homogenized, and -deformed AlxCoCrFeNi (0≤x≤2) high-entropy alloys"
54,Al0.5 Co1 Cr1 Fe1 Ni1,FCC+BCC,ANNEAL,other,,,7.6,159.0,,25.0,,,,,,208,,,,10.1016/j.jallcom.2009.08.090,2009,"Microstructure and mechanical property of as-cast, -homogenized, and -deformed AlxCoCrFeNi (0≤x≤2) high-entropy alloys"
54,Al0.5 Co1 Cr1 Fe1 Ni1,FCC+BCC,ANNEAL,other,,,7.6,209.0,,25.0,,,,,,208,,,,10.1016/j.jallcom.2009.08.090,2009,"Microstructure and mechanical property of as-cast, -homogenized, and -deformed AlxCoCrFeNi (0≤x≤2) high-entropy alloys"
54,Al0.75 Co1 Cr1 Fe1 Ni1,FCC+BCC,ANNEAL,other,,,7.3,388.0,,25.0,,,,,,200,,,,10.1016/j.jallcom.2009.08.090,2009,"Microstructure and mechanical property of as-cast, -homogenized, and -deformed AlxCoCrFeNi (0≤x≤2) high-entropy alloys"
54,Al0.75 Co1 Cr1 Fe1 Ni1,FCC+BCC,ANNEAL,other,,,7.3,280.0,,25.0,,,,,,200,,,,10.1016/j.jallcom.2009.08.090,2009,"Microstructure and mechanical property of as-cast, -homogenized, and -deformed AlxCoCrFeNi (0≤x≤2) high-entropy alloys"
54,Al0.875 Co1 Cr1 Fe1 Ni1,BCC,ANNEAL,BCC,,,7.2,538.0,,25.0,,,,,,197,,,,10.1016/j.jallcom.2009.08.090,2009,"Microstructure and mechanical property of as-cast, -homogenized, and -deformed AlxCoCrFeNi (0≤x≤2) high-entropy alloys"
54,Al0.875 Co1 Cr1 Fe1 Ni1,FCC+BCC,ANNEAL,other,,,7.2,361.0,,25.0,,,,,,197,,,,10.1016/j.jallcom.2009.08.090,2009,"Microstructure and mechanical property of as-cast, -homogenized, and -deformed AlxCoCrFeNi (0≤x≤2) high-entropy alloys"
54,Al1 Co0.8 Cr0.8 Fe0.8 Ni0.8,BCC,ANNEAL,BCC,,,6.9,487.0,,25.0,,,,,,188,,,,10.1016/j.jallcom.2009.08.090,2009,"Microstructure and mechanical property of as-cast, -homogenized, and -deformed AlxCoCrFeNi (0≤x≤2) high-entropy alloys"
54,Al1 Co0.8 Cr0.8 Fe0.8 Ni0.8,BCC,ANNEAL,BCC,,,6.9,499.0,,25.0,,,,,,188,,,,10.1016/j.jallcom.2009.08.090,2009,"Microstructure and mechanical property of as-cast, -homogenized, and -deformed AlxCoCrFeNi (0≤x≤2) high-entropy alloys"
54,Al1 Co0.667 Cr0.667 Fe0.667 Ni0.667,BCC,ANNEAL,BCC,,,6.7,484.0,,25.0,,,,,,183,,,,10.1016/j.jallcom.2009.08.090,2009,"Microstructure and mechanical property of as-cast, -homogenized, and -deformed AlxCoCrFeNi (0≤x≤2) high-entropy alloys"
54,Al1 Co0.667 Cr0.667 Fe0.667 Ni0.667,BCC,ANNEAL,BCC,,,6.7,517.0,,25.0,,,,,,183,,,,10.1016/j.jallcom.2009.08.090,2009,"Microstructure and mechanical property of as-cast, -homogenized, and -deformed AlxCoCrFeNi (0≤x≤2) high-entropy alloys"
54,Al1 Co0.5 Cr0.5 Fe0.5 Ni0.5,BCC,ANNEAL,BCC,,,6.4,509.0,,25.0,,,,,,173,,,,10.1016/j.jallcom.2009.08.090,2009,"Microstructure and mechanical property of as-cast, -homogenized, and -deformed AlxCoCrFeNi (0≤x≤2) high-entropy alloys"
54,Al1 Co0.5 Cr0.5 Fe0.5 Ni0.5,BCC,ANNEAL,BCC,,,6.4,512.0,,25.0,,,,,,173,,,,10.1016/j.jallcom.2009.08.090,2009,"Microstructure and mechanical property of as-cast, -homogenized, and -deformed AlxCoCrFeNi (0≤x≤2) high-entropy alloys"
54,Al1 Co1 Cr1 Fe1 Ni1,BCC,ANNEAL,BCC,,,7.1,484.0,,25.0,,,,,,194,,,,10.1016/j.jallcom.2009.08.090,2009,"Microstructure and mechanical property of as-cast, -homogenized, and -deformed AlxCoCrFeNi (0≤x≤2) high-entropy alloys"
54,Al1 Co1 Cr1 Fe1 Ni1,FCC+BCC,ANNEAL,other,,,7.1,433.0,,25.0,,,,,,194,,,,10.1016/j.jallcom.2009.08.090,2009,"Microstructure and mechanical property of as-cast, -homogenized, and -deformed AlxCoCrFeNi (0≤x≤2) high-entropy alloys"
54,Co1 Cr1 Fe1 Ni1,FCC,ANNEAL,FCC,,,8.2,116.0,,25.0,,,,,,225,,,,10.1016/j.jallcom.2009.08.090,2009,"Microstructure and mechanical property of as-cast, -homogenized, and -deformed AlxCoCrFeNi (0≤x≤2) high-entropy alloys"
54,Co1 Cr1 Fe1 Ni1,FCC,ANNEAL,FCC,,,8.2,113.0,,25.0,,,,,,225,,,,10.1016/j.jallcom.2009.08.090,2009,"Microstructure and mechanical property of as-cast, -homogenized, and -deformed AlxCoCrFeNi (0≤x≤2) high-entropy alloys"
63,Al0.5 Co1 Cr1 Fe1 Mo0.5 Ni1,FCC+Sec.,CAST,other,,,7.9,425.0,,25.0,,,,,,220,,,,10.1007/s11837-013-0753-6,2013,Effect of Aluminum Content on Microstructure and Mechanical Properties of Al x CoCrFeMo0.5Ni High-Entropy Alloys
63,Al1 Co0.667 Cr0.667 Fe0.667 Mo0.333 Ni0.667,B2+Sec.,CAST,other,,,7.0,655.0,,25.0,,,,,,195,,,,10.1007/s11837-013-0753-6,2013,Effect of Aluminum Content on Microstructure and Mechanical Properties of Al x CoCrFeMo0.5Ni High-Entropy Alloys
63,Al1 Co0.5 Cr0.5 Fe0.5 Mo0.25 Ni0.5,,CAST,other,,,6.7,605.0,,25.0,,,,,,185,,,,10.1007/s11837-013-0753-6,2013,Effect of Aluminum Content on Microstructure and Mechanical Properties of Al x CoCrFeMo0.5Ni High-Entropy Alloys
63,Al1 Co1 Cr1 Fe1 Mo0.5 Ni1,B2+Sec.,CAST,other,,,7.4,715.0,,25.0,,,,,,206,,,,10.1007/s11837-013-0753-6,2013,Effect of Aluminum Content on Microstructure and Mechanical Properties of Al x CoCrFeMo0.5Ni High-Entropy Alloys
63,Co1 Cr1 Fe1 Mo0.5 Ni1,FCC+Sec.,CAST,other,,,8.4,210.0,,25.0,,,,,,236,,,,10.1007/s11837-013-0753-6,2013,Effect of Aluminum Content on Microstructure and Mechanical Properties of Al x CoCrFeMo0.5Ni High-Entropy Alloys
66,Al0.5 Co1 Cr1 Fe1 Ni1 Ti1,BCC+Laves,CAST,other,,,7.0,,C,25.0,,1600.0,,10.0,107.0,191,,,,10.1016/j.msea.2008.12.053,2009,Microstructure and mechanical properties of CoCrFeNiTiAlx high-entropy alloys
66,Al1 Co0.667 Cr0.667 Fe0.667 Ni0.667 Ti0.667,,CAST,other,,,6.4,,C,25.0,,2110.0,,10.0,133.0,172,,,,10.1016/j.msea.2008.12.053,2009,Microstructure and mechanical properties of CoCrFeNiTiAlx high-entropy alloys
66,Al1 Co0.5 Cr0.5 Fe0.5 Ni0.5 Ti0.5,,CAST,other,,,6.1,643.0,C,25.0,,1030.0,,5.0,94.0,165,,,,10.1016/j.msea.2008.12.053,2009,Microstructure and mechanical properties of CoCrFeNiTiAlx high-entropy alloys
66,Al1 Co1 Cr1 Fe1 Ni1 Ti1,BCC+Laves,CAST,other,0.15,,6.7,,C,25.0,,2280.0,,6.0,148.0,181,,,,10.1016/j.msea.2008.12.053,2009,Microstructure and mechanical properties of CoCrFeNiTiAlx high-entropy alloys
66,Co1 Cr1 Fe1 Ni1 Ti1,FCC,CAST,FCC,,,7.5,,C,25.0,,2020.0,,9.0,135.0,203,,,,10.1016/j.msea.2008.12.053,2009,Microstructure and mechanical properties of CoCrFeNiTiAlx high-entropy alloys
1,Al0.133 Co1 Cr0.667 Fe0.667 Ni1 Ti0.667,FCC+Sec.,ANNEAL,other,,,7.5,717.0,,25.0,,,,,,199,,,,10.1016/j.actamat.2011.06.041,2011,Microstructure and wear behavior of AlxCo1.5CrFeNi1.5Tiy high-entropy alloys
1,Al0.133 Co1 Cr0.667 Fe0.667 Ni1 Ti0.333,FCC,ANNEAL,FCC,,,7.8,487.0,,25.0,,,,,,206,,,,10.1016/j.actamat.2011.06.041,2011,Microstructure and wear behavior of AlxCo1.5CrFeNi1.5Tiy high-entropy alloys
1,Co1 Cr0.667 Fe0.667 Ni1 Ti0.667,FCC+Sec.,ANNEAL,other,,,7.7,654.0,,25.0,,,,,,203,,,,10.1016/j.actamat.2011.06.041,2011,Microstructure and wear behavior of AlxCo1.5CrFeNi1.5Tiy high-entropy alloys
1,Co1 Cr0.667 Fe0.667 Ni1 Ti0.333,Other,ANNEAL,other,,,8.0,509.0,,25.0,,,,,,211,,,,10.1016/j.actamat.2011.06.041,2011,Microstructure and wear behavior of AlxCo1.5CrFeNi1.5Tiy high-entropy alloys
2,Al0.7 Co0.3 Cr1 Fe1 Ni1,FCC+BCC+B2,POWDER,other,,,7.1,624.0,C,25.0,2033.0,2635.0,8.0,,,200,,,,10.1016/j.matdes.2013.04.061,2013,"Alloying behavior, microstructure and mechanical properties in a FeNiCrCo0.3Al0.7 high entropy alloy"
3,Al0.875 Co1 Cr1 Fe1 Ni1,FCC+BCC,,other,,,7.2,,,25.0,,,,,,197,,,,10.1016/C2013-0-14235-3,2014,High Entropy Alloys
4,Al1 Co0.667 Cr0.667 Fe0.667 Ni0.667,BCC,CAST,BCC,,,6.7,402.0,,25.0,,,,,,183,,,,10.1016/j.jallcom.2008.07.124,2009,Effect of alloying elements on microstructure and properties of multiprincipal elements high-entropy alloys
4,Al1 Co0.4 Cr0.4 Fe0.4 Ni0.4,BCC,CAST,BCC,,,6.1,487.0,,25.0,,,,,,165,,,,10.1016/j.jallcom.2008.07.124,2009,Effect of alloying elements on microstructure and properties of multiprincipal elements high-entropy alloys
4,Al1 Co0.5 Cr0.5 Fe0.5 Ni0.5,BCC,CAST,BCC,,,6.4,432.0,,25.0,,,,,,173,,,,10.1016/j.jallcom.2008.07.124,2009,Effect of alloying elements on microstructure and properties of multiprincipal elements high-entropy alloys
4,Al1 Co0.333 Cr0.333 Fe0.333 Ni0.333,BCC,CAST,BCC,,,5.8,506.0,,25.0,,,,,,158,,,,10.1016/j.jallcom.2008.07.124,2009,Effect of alloying elements on microstructure and properties of multiprincipal elements high-entropy alloys
4,Al1 Co1 Cr1 Fe1 Ni1,BCC,CAST,BCC,,,7.1,395.0,,25.0,,,,,,194,,,,10.1016/j.jallcom.2008.07.124,2009,Effect of alloying elements on microstructure and properties of multiprincipal elements high-entropy alloys
4,Al1 Cr1 Cu1 Fe1 Ni1,FCC+BCC,CAST,other,,,7.1,342.0,,25.0,,,,,,178,,,,10.1016/j.jallcom.2008.07.124,2009,Effect of alloying elements on microstructure and properties of multiprincipal elements high-entropy alloys
4,Co1 Cr1 Cu1 Fe1 Ni1,FCC,CAST,FCC,,,8.3,286.0,,25.0,,,,,,206,,,,10.1016/j.jallcom.2008.07.124,2009,Effect of alloying elements on microstructure and properties of multiprincipal elements high-entropy alloys
4,Cr1 Cu1 Fe1 Mn1 Ni1,FCC+BCC,CAST,other,,,8.1,296.0,,25.0,,,,,,204,,,,10.1016/j.jallcom.2008.07.124,2009,Effect of alloying elements on microstructure and properties of multiprincipal elements high-entropy alloys
4,Cr1 Cu1 Fe1 Mo1 Ni1,FCC,CAST,FCC,,,8.6,263.0,,25.0,,,,,,230,,,,10.1016/j.jallcom.2008.07.124,2009,Effect of alloying elements on microstructure and properties of multiprincipal elements high-entropy alloys
5,Al1 Co1 Cr1 Fe1 Ni1,BCC,CAST,BCC,,,7.1,,C,25.0,1251.0,2004.0,,33.0,,194,,,,10.1016/j.msea.2008.01.064,2008,Microstructure and compressive properties of AlCrFeCoNi high entropy alloy
6,Al1 C0.1 Co1 Cr1 Fe1 Ni1,BCC+Sec.,CAST,other,,,7.0,,C,25.0,957.0,2550.0,,11.0,213.0,,,,,10.1016/j.jallcom.2010.10.047,2011,Microstructure and compressive properties of multiprincipal component AlCoCrFeNiCx alloys
6,Al1 C0.2 Co1 Cr1 Fe1 Ni1,BCC+Sec.,CAST,other,,,6.9,,C,25.0,906.0,2386.0,,9.0,151.0,,,,,10.1016/j.jallcom.2010.10.047,2011,Microstructure and compressive properties of multiprincipal component AlCoCrFeNiCx alloys
6,Al1 C0.3 Co1 Cr1 Fe1 Ni1,BCC+Sec.,CAST,other,,,6.8,,C,25.0,867.0,2178.0,,8.0,137.0,,,,,10.1016/j.jallcom.2010.10.047,2011,Microstructure and compressive properties of multiprincipal component AlCoCrFeNiCx alloys
6,Al1 C0.4 Co1 Cr1 Fe1 Ni1,BCC+Sec.,CAST,other,,,6.7,,C,25.0,1056.0,2375.0,,7.0,156.0,,,,,10.1016/j.jallcom.2010.10.047,2011,Microstructure and compressive properties of multiprincipal component AlCoCrFeNiCx alloys
6,Al1 C0.5 Co1 Cr1 Fe1 Ni1,BCC+Sec.,CAST,other,,,6.7,,C,25.0,1060.0,2250.0,,6.0,181.0,,,,,10.1016/j.jallcom.2010.10.047,2011,Microstructure and compressive properties of multiprincipal component AlCoCrFeNiCx alloys
6,Al0.667 C1 Co0.667 Cr0.667 Fe0.667 Ni0.667,BCC+Sec.,CAST,other,,,6.0,,C,25.0,1255.0,2083.0,,6.0,73.0,,,,,10.1016/j.jallcom.2010.10.047,2011,Microstructure and compressive properties of multiprincipal component AlCoCrFeNiCx alloys
6,Al1 C1 Co1 Cr1 Fe1 Ni1,BCC+Sec.,CAST,other,,,6.3,,C,25.0,1251.0,2166.0,,7.0,75.0,,,,,10.1016/j.jallcom.2010.10.047,2011,Microstructure and compressive properties of multiprincipal component AlCoCrFeNiCx alloys
6,Al1 Co1 Cr1 Fe1 Ni1,BCC,CAST,BCC,,,7.1,,C,25.0,1138.0,,,11.0,,194,,,,10.1016/j.jallcom.2010.10.047,2011,Microstructure and compressive properties of multiprincipal component AlCoCrFeNiCx alloys
7,Al1 Co1 Cr1 Fe1 Mo0.1 Ni1,BCC,CAST,BCC,,,7.2,,C,25.0,1804.0,2280.0,,9.0,,196,,,,10.1016/j.msea.2010.07.028,2010,Microstructures and compressive properties of multicomponent AlCoCrFeNiMox alloys
7,Al1 Co1 Cr1 Fe1 Mo0.2 Ni1,BCC+Sec.,CAST,other,,,7.2,,C,25.0,2456.0,2953.0,,3.0,,199,,,,10.1016/j.msea.2010.07.028,2010,Microstructures and compressive properties of multicomponent AlCoCrFeNiMox alloys
7,Al1 Co1 Cr1 Fe1 Mo0.3 Ni1,BCC+Sec.,CAST,other,,,7.3,,C,25.0,2649.0,3208.0,,3.0,,201,,,,10.1016/j.msea.2010.07.028,2010,Microstructures and compressive properties of multicomponent AlCoCrFeNiMox alloys
7,Al1 Co1 Cr1 Fe1 Mo0.4 Ni1,BCC+Sec.,CAST,other,,,7.3,,C,25.0,2670.0,3161.0,,3.0,,204,,,,10.1016/j.msea.2010.07.028,2010,Microstructures and compressive properties of multicomponent AlCoCrFeNiMox alloys
7,Al1 Co1 Cr1 Fe1 Mo0.5 Ni1,BCC+Sec.,CAST,other,,,7.4,,C,25.0,2757.0,3036.0,,3.0,,206,,,,10.1016/j.msea.2010.07.028,2010,Microstructures and compressive properties of multicomponent AlCoCrFeNiMox alloys
7,Al1 Co1 Cr1 Fe1 Ni1,BCC,CAST,BCC,,,7.1,,C,25.0,1051.0,,,,,194,,,,10.1016/j.msea.2010.07.028,2010,Microstructures and compressive properties of multicomponent AlCoCrFeNiMox alloys
8,Al1 Co1 Cr1 Fe1 Nb0.1 Ni1,BCC,CAST,BCC,,,7.1,569.0,C,25.0,1641.0,3285.0,,17.0,,192,,,,10.1016/j.msea.2011.10.110,2012,Effect of Nb addition on the microstructure and properties of AlCoCrFeNi high-entropy alloy
8,Al1 Co1 Cr1 Fe1 Nb0.25 Ni1,BCC+Laves (C14),CAST,other,,,7.2,668.0,C,25.0,1959.0,3008.0,,11.0,,190,,,,10.1016/j.msea.2011.10.110,2012,Effect of Nb addition on the microstructure and properties of AlCoCrFeNi high-entropy alloy
8,Al1 Co1 Cr1 Fe1 Nb0.5 Ni1,BCC+Laves (C14),CAST,other,,,7.2,747.0,C,25.0,2473.0,3170.0,,4.0,,186,,,,10.1016/j.msea.2011.10.110,2012,Effect of Nb addition on the microstructure and properties of AlCoCrFeNi high-entropy alloy
8,Al1 Co1 Cr1 Fe1 Nb0.75 Ni1,BCC+Laves (C14),CAST,other,,,7.3,,,25.0,,,,,,182,,,,10.1016/j.msea.2011.10.110,2012,Effect of Nb addition on the microstructure and properties of AlCoCrFeNi high-entropy alloy
8,Al1 Co1 Cr1 Fe1 Ni1,BCC,CAST,BCC,,,7.1,520.0,C,25.0,1373.0,3531.0,,25.0,,194,,,,10.1016/j.msea.2011.10.110,2012,Effect of Nb addition on the microstructure and properties of AlCoCrFeNi high-entropy alloy
9,Al0.8 Co1 Cr1 Cu1 Fe1 Ni1,FCC+BCC,CAST,other,,,7.6,270.0,,25.0,,,,,,187,,,,10.1002/adem.200900171,2010,Microstructure and Mechanical Properties of New AlCoxCrFeMo0.5Ni High-Entropy Alloys
9,Al1 Co0.5 Cr1 Fe1 Mo0.5 Ni1,BCC+Sec.,CAST,other,,,7.2,801.0,,25.0,,,,,,206,,,,10.1002/adem.200900171,2010,Microstructure and Mechanical Properties of New AlCoxCrFeMo0.5Ni High-Entropy Alloys
9,Al0.667 Co1 Cr0.667 Fe0.667 Mo0.333 Ni0.667,BCC+Sec.,CAST,other,,,7.5,741.0,,25.0,,,,,,206,,,,10.1002/adem.200900171,2010,Microstructure and Mechanical Properties of New AlCoxCrFeMo0.5Ni High-Entropy Alloys
9,Al0.5 Co1 Cr0.5 Fe0.5 Mo0.25 Ni0.5,FCC+BCC+Sec.,CAST,other,200.0,,7.6,586.0,,25.0,,,,,,207,,,,10.1002/adem.200900171,2010,Microstructure and Mechanical Properties of New AlCoxCrFeMo0.5Ni High-Entropy Alloys
9,Al1 Co1 Cr1 Fe1 Mo0.5 Ni1,BCC+Sec.,CAST,other,,,7.4,796.0,,25.0,,,,,,206,,,,10.1002/adem.200900171,2010,Microstructure and Mechanical Properties of New AlCoxCrFeMo0.5Ni High-Entropy Alloys
10,Al1 Co1 Cr1 Fe1 Mo0.5 Ni1,BCC+Sec.,CAST,other,,,7.4,755.0,,25.0,,,,,,206,,,,10.1016/j.wear.2009.10.013,2010,Effect of iron content on wear behavior of AlCoCrFexMo0.5Ni high-entropy alloys
10,Al1 Co1 Cr1 Fe0.6 Mo0.5 Ni1,BCC+Sec.,CAST,other,,,7.4,754.0,,25.0,,,,,,206,,,,10.1016/j.wear.2009.10.013,2010,Effect of iron content on wear behavior of AlCoCrFexMo0.5Ni high-entropy alloys
10,Al0.667 Co0.667 Cr0.667 Fe1 Mo0.333 Ni0.667,BCC+Sec.,CAST,other,,,7.4,635.0,,25.0,,,,,,206,,,,10.1016/j.wear.2009.10.013,2010,Effect of iron content on wear behavior of AlCoCrFexMo0.5Ni high-entropy alloys
10,Al0.5 Co0.5 Cr0.5 Fe1 Mo0.25 Ni0.5,BCC+Sec.,CAST,other,,,7.5,639.0,,25.0,,,,,,207,,,,10.1016/j.wear.2009.10.013,2010,Effect of iron content on wear behavior of AlCoCrFexMo0.5Ni high-entropy alloys
11,Al1 Co1 Cr1 Fe1 Mo0.5,,CAST,other,,,7.1,857.0,,25.0,,,,,,207,,,,10.1016/j.intermet.2012.09.008,2013,On microstructure and mechanical performance of AlCoCrFeMo0.5Nix high-entropy alloys
11,Al1 Co1 Cr1 Fe1 Mo0.5 Ni1,,CAST,other,,,7.4,730.0,,25.0,,,,,,206,,,,10.1016/j.intermet.2012.09.008,2013,On microstructure and mechanical performance of AlCoCrFeMo0.5Nix high-entropy alloys
11,Al1 Co1 Cr1 Fe1 Mo0.5 Ni0.5,,CAST,other,,,7.2,708.0,,25.0,,,,,,207,,,,10.1016/j.intermet.2012.09.008,2013,On microstructure and mechanical performance of AlCoCrFeMo0.5Nix high-entropy alloys
11,Al0.667 Co0.667 Cr0.667 Fe0.667 Mo0.333 Ni1,FCC+Sec.,CAST,other,,,7.5,586.0,,25.0,,,,,,206,,,,10.1016/j.intermet.2012.09.008,2013,On microstructure and mechanical performance of AlCoCrFeMo0.5Nix high-entropy alloys
11,Al0.5 Co0.5 Cr0.5 Fe0.5 Mo0.25 Ni1,FCC+Sec.,CAST,other,,,7.6,395.0,,25.0,,,,,,205,,,,10.1016/j.intermet.2012.09.008,2013,On microstructure and mechanical performance of AlCoCrFeMo0.5Nix high-entropy alloys
12,Al1 Co1 Cr1 Fe1 Ni1,BCC,CAST,BCC,,,7.1,,C,25.0,1110.0,,,,,194,,,,10.1016/j.msea.2010.07.049,2010,Synthesis and properties of multiprincipal component AlCoCrFeNiSix alloys
12,Al1 Co1 Cr1 Fe1 Ni1 Si1,BCC+Sec.,CAST,other,,,6.3,,C,25.0,2411.0,2950.0,,1.0,,169,,,,10.1016/j.msea.2010.07.049,2010,Synthesis and properties of multiprincipal component AlCoCrFeNiSix alloys
12,Al1 Co1 Cr1 Fe1 Ni1 Si0.2,BCC,CAST,BCC,,,6.9,,C,25.0,1265.0,2173.0,,14.0,,188,,,,10.1016/j.msea.2010.07.049,2010,Synthesis and properties of multiprincipal component AlCoCrFeNiSix alloys
12,Al1 Co1 Cr1 Fe1 Ni1 Si0.4,BCC,CAST,BCC,,,6.8,,C,25.0,1481.0,2444.0,,13.0,,183,,,,10.1016/j.msea.2010.07.049,2010,Synthesis and properties of multiprincipal component AlCoCrFeNiSix alloys
12,Al1 Co1 Cr1 Fe1 Ni1 Si0.6,BCC,CAST,BCC,,,6.6,,C,25.0,1834.0,2195.0,,3.0,,178,,,,10.1016/j.msea.2010.07.049,2010,Synthesis and properties of multiprincipal component AlCoCrFeNiSix alloys
12,Al1 Co1 Cr1 Fe1 Ni1 Si0.8,BCC+Sec.,CAST,other,,,6.4,,C,25.0,2179.0,2664.0,,2.0,,174,,,,10.1016/j.msea.2010.07.049,2010,Synthesis and properties of multiprincipal component AlCoCrFeNiSix alloys
13,Al0.25 Co1 Cr1 Cu0.5 Fe1 Ni1 Ti0.5,FCC,CAST,FCC,,,7.7,,,25.0,,,,,,198,,,,10.1016/j.jallcom.2008.11.059,2009,Atomic packing efficiency and phase transition in a high entropy alloy
13,Al0.25 Co1 Cr1 Cu0.75 Fe1 Ni1 Ti0.5,FCC,CAST,FCC,,,7.7,,C,25.0,750.0,1970.0,,39.0,103.0,195,,,,10.1016/j.jallcom.2008.11.059,2009,Atomic packing efficiency and phase transition in a high entropy alloy
13,Al0.5 Co1 Cr1 Cu0.5 Fe1 Ni1 Ti0.5,FCC+BCC,CAST,other,,,7.4,,C,25.0,1580.0,2389.0,,17.0,161.0,192,,,,10.1016/j.jallcom.2008.11.059,2009,Atomic packing efficiency and phase transition in a high entropy alloy
13,Al0.75 Co1 Cr1 Cu0.25 Fe1 Ni1 Ti0.5,FCC+BCC,CAST,other,,,7.2,,C,25.0,1900.0,2697.0,,12.0,164.0,189,,,,10.1016/j.jallcom.2008.11.059,2009,Atomic packing efficiency and phase transition in a high entropy alloy
13,Co1 Cr1 Cu1 Fe1 Ni1 Ti0.5,FCC,CAST,FCC,,,8.0,,C,25.0,700.0,1650.0,,29.0,93.0,198,,,,10.1016/j.jallcom.2008.11.059,2009,Atomic packing efficiency and phase transition in a high entropy alloy
14,Al1 Co1 Cr1 Fe1 Ni1 Ti1,BCC+BCC,CAST,other,,,6.7,,C,25.0,1860.0,2580.0,10.7,9.0,90.0,181,,,,10.1063/1.27345,2007,Solid solution alloys of AlCoCrFeNiTix with excellent room-temperature mechanical properties
14,Al1 Co1 Cr1 Fe1 Ni1 Ti0.5,BCC+BCC,CAST,other,,,6.9,178.0,C,25.0,2260.0,3140.0,24.4,23.0,178.0,187,,,,10.1063/1.27345,2007,Solid solution alloys of AlCoCrFeNiTix with excellent room-temperature mechanical properties
14,Al0.667 Co0.667 Cr0.667 Fe0.667 Ni0.667 Ti1,BCC+Laves (C14),CAST,other,,,6.5,,C,25.0,2220.0,2720.0,6.6,5.0,160.0,176,,,,10.1063/1.27345,2007,Solid solution alloys of AlCoCrFeNiTix with excellent room-temperature mechanical properties
15,Al1 Co1 Cr1 Fe1 Ni1 Ti1 V1 Zr1,,CAST,other,,,6.6,780.0,,25.0,,,,,,160,,,,10.1002/adem.200300567,2004,Nanostructured High-Entropy Alloys with Multiple Principal Elements: Novel Alloy Design Concepts and Outcomes
15,Al1 Co1 Fe1 Ni1 Ti1 V1 Zr1,BCC,CAST,BCC,,,6.5,790.0,,25.0,,,,,,143,,,,10.1002/adem.200300567,2004,Nanostructured High-Entropy Alloys with Multiple Principal Elements: Novel Alloy Design Concepts and Outcomes
15,Al1 Fe1 Ni1 Ti1 V1 Zr1,BCC,CAST,BCC,,,6.1,800.0,,25.0,,,,,,132,,,,10.1002/adem.200300567,2004,Nanostructured High-Entropy Alloys with Multiple Principal Elements: Novel Alloy Design Concepts and Outcomes
15,Co1 Cr1 Cu1 Fe1 Ni1 Ti1 V1 Zr1,,CAST,other,,,7.4,680.0,,25.0,,,,,,168,,,,10.1002/adem.200300567,2004,Nanostructured High-Entropy Alloys with Multiple Principal Elements: Novel Alloy Design Concepts and Outcomes
15,Co1 Cr1 Fe1 Mo1 Ni1 Ti1 V1 Zr1,,CAST,other,,,7.5,850.0,,25.0,,,,,,192,,,,10.1002/adem.200300567,2004,Nanostructured High-Entropy Alloys with Multiple Principal Elements: Novel Alloy Design Concepts and Outcomes
15,Co1 Cu1 Fe1 Ni1 Ti1 V1 Zr1,,CAST,other,,,7.4,630.0,,25.0,,,,,,152,,,,10.1002/adem.200300567,2004,Nanostructured High-Entropy Alloys with Multiple Principal Elements: Novel Alloy Design Concepts and Outcomes
15,Co1 Fe1 Mo1 Ni1 Ti1 V1 Zr1,,CAST,other,,,7.6,790.0,,25.0,,,,,,180,,,,10.1002/adem.200300567,2004,Nanostructured High-Entropy Alloys with Multiple Principal Elements: Novel Alloy Design Concepts and Outcomes
15,Cu1 Fe1 Ni1 Ti1 V1 Zr1,,CAST,other,,,7.1,590.0,,25.0,,,,,,142,,,,10.1002/adem.200300567,2004,Nanostructured High-Entropy Alloys with Multiple Principal Elements: Novel Alloy Design Concepts and Outcomes
15,Fe1 Mo1 Ni1 Ti1 V1 Zr1,BCC+Sec.,CAST,other,,,7.4,740.0,,25.0,,,,,,175,,,,10.1002/adem.200300567,2004,Nanostructured High-Entropy Alloys with Multiple Principal Elements: Novel Alloy Design Concepts and Outcomes
16,Al0.1 Co1 Cr1 Fe1 Mn1 Ni1,FCC,CAST,FCC,,,8.0,180.0,,25.0,,,,,,216,,,,10.1016/j.actamat.2013.09.037,2014,Effects of Al addition on structural evolution and tensile properties of the FeCoNiCrMn high-entropy alloy system
16,Al0.2 Co1 Cr1 Fe1 Mn1 Ni1,FCC,CAST,FCC,,,7.9,171.0,T,25.0,220.0,,56.0,,,214,,,,10.1016/j.actamat.2013.09.037,2014,Effects of Al addition on structural evolution and tensile properties of the FeCoNiCrMn high-entropy alloy system
16,Al0.38 Co1 Cr1 Fe1 Mn1 Ni1,FCC,CAST,FCC,,,7.7,182.0,T,25.0,244.0,,45.0,,,209,,,,10.1016/j.actamat.2013.09.037,2014,Effects of Al addition on structural evolution and tensile properties of the FeCoNiCrMn high-entropy alloy system
16,Al0.43 Co1 Cr1 Fe1 Mn1 Ni1,FCC+BCC,CAST,other,,,7.6,183.0,T,25.0,285.0,,35.0,,,208,,,,10.1016/j.actamat.2013.09.037,2014,Effects of Al addition on structural evolution and tensile properties of the FeCoNiCrMn high-entropy alloy system
16,Al0.49 Co1 Cr1 Fe1 Mn1 Ni1,FCC+BCC,CAST,other,,,7.6,220.0,T,25.0,331.0,,29.0,,,206,,,,10.1016/j.actamat.2013.09.037,2014,Effects of Al addition on structural evolution and tensile properties of the FeCoNiCrMn high-entropy alloy system
16,Al0.56 Co1 Cr1 Fe1 Mn1 Ni1,FCC+BCC,CAST,other,,,7.5,278.0,T,25.0,526.0,,16.0,,,204,,,,10.1016/j.actamat.2013.09.037,2014,Effects of Al addition on structural evolution and tensile properties of the FeCoNiCrMn high-entropy alloy system
16,Al0.62 Co1 Cr1 Fe1 Mn1 Ni1,FCC+BCC,CAST,other,,,7.5,405.0,T,25.0,833.0,,5.0,,,203,,,,10.1016/j.actamat.2013.09.037,2014,Effects of Al addition on structural evolution and tensile properties of the FeCoNiCrMn high-entropy alloy system
16,Al0.68 Co1 Cr1 Fe1 Mn1 Ni1,FCC+BCC,CAST,other,,,7.4,486.0,,25.0,,,,,,202,,,,10.1016/j.actamat.2013.09.037,2014,Effects of Al addition on structural evolution and tensile properties of the FeCoNiCrMn high-entropy alloy system
16,Al0.75 Co1 Cr1 Fe1 Mn1 Ni1,FCC+BCC,CAST,other,,,7.4,530.0,,25.0,,,,,,200,,,,10.1016/j.actamat.2013.09.037,2014,Effects of Al addition on structural evolution and tensile properties of the FeCoNiCrMn high-entropy alloy system
16,Al0.81 Co1 Cr1 Fe1 Mn1 Ni1,FCC+BCC,CAST,other,,,7.3,539.0,,25.0,,,,,,199,,,,10.1016/j.actamat.2013.09.037,2014,Effects of Al addition on structural evolution and tensile properties of the FeCoNiCrMn high-entropy alloy system
16,Al0.88 Co1 Cr1 Fe1 Mn1 Ni1,FCC+BCC,CAST,other,,,7.3,533.0,,25.0,,,,,,197,,,,10.1016/j.actamat.2013.09.037,2014,Effects of Al addition on structural evolution and tensile properties of the FeCoNiCrMn high-entropy alloy system
16,Al0.95 Co1 Cr1 Fe1 Mn1 Ni1,FCC+BCC,CAST,other,,,7.2,535.0,,25.0,,,,,,196,,,,10.1016/j.actamat.2013.09.037,2014,Effects of Al addition on structural evolution and tensile properties of the FeCoNiCrMn high-entropy alloy system
16,Al1 Co0.8 Cr0.8 Fe0.8 Mn0.8 Ni0.8,BCC,CAST,BCC,,,7.0,539.0,,25.0,,,,,,190,,,,10.1016/j.actamat.2013.09.037,2014,Effects of Al addition on structural evolution and tensile properties of the FeCoNiCrMn high-entropy alloy system
16,Co1 Cr1 Fe1 Mn1 Ni1,FCC,CAST,FCC,,,8.1,176.0,T,25.0,208.0,,62.0,,,219,,,,10.1016/j.actamat.2013.09.037,2014,Effects of Al addition on structural evolution and tensile properties of the FeCoNiCrMn high-entropy alloy system
17,Co1 Cr1 Fe1 Mn1 Ni1,FCC,CAST,FCC,300.0,,8.1,144.0,C,25.0,,,,,,219,,,,10.1016/j.jallcom.2014.12.157,2015,Effect of V content on microstructure and mechanical properties of the CoCrFeMnNiVx high entropy alloys
17,Co1 Cr1 Fe1 Mn1 Ni1,FCC,ANNEAL,FCC,350.0,,8.1,135.0,C,25.0,230.0,,,75.0,,219,,,,10.1016/j.jallcom.2014.12.157,2015,Effect of V content on microstructure and mechanical properties of the CoCrFeMnNiVx high entropy alloys
17,Co1 Cr1 Fe1 Mn1 Ni1 V0.25,FCC,CAST,FCC,120.0,,8.0,151.0,C,25.0,,,,,,215,,,,10.1016/j.jallcom.2014.12.157,2015,Effect of V content on microstructure and mechanical properties of the CoCrFeMnNiVx high entropy alloys
17,Co1 Cr1 Fe1 Mn1 Ni1 V0.25,,ANNEAL,other,130.0,,8.0,144.0,C,25.0,200.0,,,75.0,,215,,,,10.1016/j.jallcom.2014.12.157,2015,Effect of V content on microstructure and mechanical properties of the CoCrFeMnNiVx high entropy alloys
17,Co1 Cr1 Fe1 Mn1 Ni1 V0.5,FCC,CAST,FCC,220.0,,7.9,186.0,C,25.0,,,,,,211,,,,10.1016/j.jallcom.2014.12.157,2015,Effect of V content on microstructure and mechanical properties of the CoCrFeMnNiVx high entropy alloys
17,Co1 Cr1 Fe1 Mn1 Ni1 V0.5,FCC,ANNEAL,FCC,250.0,,7.9,275.0,C,25.0,620.0,,,75.0,,211,,,,10.1016/j.jallcom.2014.12.157,2015,Effect of V content on microstructure and mechanical properties of the CoCrFeMnNiVx high entropy alloys
17,Co1 Cr1 Fe1 Mn1 Ni1 V0.75,FCC+Sec.,ANNEAL,other,500.0,,7.8,380.0,C,25.0,740.0,1325.0,,7.8,,207,,,,10.1016/j.jallcom.2014.12.157,2015,Effect of V content on microstructure and mechanical properties of the CoCrFeMnNiVx high entropy alloys
17,Co1 Cr1 Fe1 Mn1 Ni1 V0.75,FCC+Sec.,CAST,other,500.0,,7.8,342.0,C,25.0,,,,,,207,,,,10.1016/j.jallcom.2014.12.157,2015,Effect of V content on microstructure and mechanical properties of the CoCrFeMnNiVx high entropy alloys
17,Co1 Cr1 Fe1 Mn1 Ni1 V1,FCC+Sec.,ANNEAL,other,12.0,,7.7,636.0,C,25.0,1660.0,1845.0,,0.5,,204,,,,10.1016/j.jallcom.2014.12.157,2015,Effect of V content on microstructure and mechanical properties of the CoCrFeMnNiVx high entropy alloys
17,Co1 Cr1 Fe1 Mn1 Ni1 V1,FCC+Sec.,CAST,other,,,7.7,650.0,C,25.0,,,,,,204,,,,10.1016/j.jallcom.2014.12.157,2015,Effect of V content on microstructure and mechanical properties of the CoCrFeMnNiVx high entropy alloys
18,Al0.2 Cr0.667 Fe1 Mn0.667 Ni0.333,FCC+BCC,CAST,other,,,7.4,297.0,,25.0,,,,,,213,,,,10.1016/j.msea.2010.05.052,2010,Microstructure and properties of age-hardenable AlxCrFe1.5MnNi0.5 alloys
18,Al0.333 Cr0.667 Fe1 Mn0.667 Ni0.333,BCC,CAST,BCC,,,7.2,396.0,,25.0,,,,,,206,,,,10.1016/j.msea.2010.05.052,2010,Microstructure and properties of age-hardenable AlxCrFe1.5MnNi0.5 alloys
19,Al1 Cr1 Fe1 Ni1,,CAST,other,,,6.7,472.0,C,25.0,1406.0,2927.0,,29.0,,190,,,,10.1016/j.jallcom.2013.03.253,2013,Microstructure and mechanical properties of multi-component AlCrFeNiMox high-entropy alloys
19,Al1 Cr1 Fe1 Mo1 Ni1,B2+Sec.,CAST,other,,,7.4,905.0,,25.0,,,,,,218,,,,10.1016/j.jallcom.2013.03.253,2013,Microstructure and mechanical properties of multi-component AlCrFeNiMox high-entropy alloys
19,Al1 Cr1 Fe1 Mo0.2 Ni1,,CAST,other,,,6.8,549.0,C,25.0,1487.0,3222.0,,29.0,,197,,,,10.1016/j.jallcom.2013.03.253,2013,Microstructure and mechanical properties of multi-component AlCrFeNiMox high-entropy alloys
19,Al1 Cr1 Fe1 Mo0.5 Ni1,,CAST,other,,,7.1,622.0,C,25.0,1749.0,2644.0,,13.0,,205,,,,10.1016/j.jallcom.2013.03.253,2013,Microstructure and mechanical properties of multi-component AlCrFeNiMox high-entropy alloys
19,Al1 Cr1 Fe1 Mo0.8 Ni1,B2+Sec.,CAST,other,,,7.3,854.0,C,25.0,1513.0,1513.0,,0.0,,213,,,,10.1016/j.jallcom.2013.03.253,2013,Microstructure and mechanical properties of multi-component AlCrFeNiMox high-entropy alloys
20,Al0.3 Co1 Cr1 Cu1 Fe1,FCC,,FCC,,,7.8,180.0,,25.0,,,,,,198,,,,10.3166/acsm.31.633-648,2006,Recent progress in high-entropy alloys
20,Al0.5 Co1 Cr1 Cu1 Fe1,FCC,,FCC,,,7.6,207.0,,25.0,,,,,,192,,,,10.3166/acsm.31.633-648,2006,Recent progress in high-entropy alloys
20,Al0.8 Co1 Cr1 Cu1 Fe1,FCC+BCC,,other,,,7.3,271.0,,25.0,,,,,,184,,,,10.3166/acsm.31.633-648,2006,Recent progress in high-entropy alloys
20,Al1 Co0.769 Cr0.769 Cu0.769 Fe0.769,FCC+BCC,,other,,,6.9,476.0,,25.0,,,,,,174,,,,10.3166/acsm.31.633-648,2006,Recent progress in high-entropy alloys
20,Al1 Co0.667 Cr0.667 Cu0.667 Fe0.667,FCC+BCC,,other,,,6.7,510.0,,25.0,,,,,,170,,,,10.3166/acsm.31.633-648,2006,Recent progress in high-entropy alloys
20,Al1 Co0.556 Cr0.556 Cu0.556 Fe0.556,FCC+BCC,,other,,,6.5,557.0,,25.0,,,,,,165,,,,10.3166/acsm.31.633-648,2006,Recent progress in high-entropy alloys
20,Al1 Co0.5 Cr0.5 Cu0.5 Fe0.5,FCC+BCC,,other,,,6.4,567.0,,25.0,,,,,,162,,,,10.3166/acsm.31.633-648,2006,Recent progress in high-entropy alloys
20,Al1 Co0.435 Cr0.435 Cu0.435 Fe0.435,FCC+BCC,,other,,,6.2,603.0,,25.0,,,,,,157,,,,10.3166/acsm.31.633-648,2006,Recent progress in high-entropy alloys
20,Al1 Co0.4 Cr0.4 Cu0.4 Fe0.4,FCC+BCC,,other,,,6.1,624.0,,25.0,,,,,,154,,,,10.3166/acsm.31.633-648,2006,Recent progress in high-entropy alloys
20,Al1 Co0.357 Cr0.357 Cu0.357 Fe0.357,BCC,,BCC,,,5.9,657.0,,25.0,,,,,,151,,,,10.3166/acsm.31.633-648,2006,Recent progress in high-entropy alloys
20,Al1 Co0.333 Cr0.333 Cu0.333 Fe0.333,BCC,,BCC,,,5.8,644.0,,25.0,,,,,,148,,,,10.3166/acsm.31.633-648,2006,Recent progress in high-entropy alloys
20,Al1 Co1 Cr1 Cu1 Fe1,FCC+BCC,,other,,,7.1,407.0,,25.0,,,,,,180,,,,10.3166/acsm.31.633-648,2006,Recent progress in high-entropy alloys
20,Co1 Cr1 Cu1 Fe1,FCC,,FCC,,,8.2,134.0,,25.0,,,,,,207,,,,10.3166/acsm.31.633-648,2006,Recent progress in high-entropy alloys
21,Co1 Cr1 Cu0.5 Fe1 Ni1,FCC,CAST,FCC,,,8.3,172.0,,25.0,,,,,,214,,,,10.1016/j.intermet.2010.03.030,2010,Effect of aging treatment on microstructure and properties of high-entropy Cu0.5CoCrFeNi alloy
22,Co1 Cr1 Cu1 Fe1 Ni1 Ti1,FCC,CAST,FCC,,,7.7,,C,25.0,1272.0,1272.0,2.0,0.0,,191,,,,10.1016/j.intermet.2006.08.005,2007,Novel microstructure and properties of multicomponent CoCrCuFeNiTix alloys
22,Co1 Cr1 Cu1 Fe1 Ni1 Ti0.5,FCC,CAST,FCC,,,8.0,,C,25.0,700.0,1650.0,22.0,21.6,,198,,,,10.1016/j.intermet.2006.08.005,2007,Novel microstructure and properties of multicomponent CoCrCuFeNiTix alloys
22,Co1 Cr1 Cu1 Fe1 Ni1 Ti0.8,FCC+Laves (C14),CAST,other,,,7.8,,C,25.0,1042.0,1848.0,3.0,2.11,,193,,,,10.1016/j.intermet.2006.08.005,2007,Novel microstructure and properties of multicomponent CoCrCuFeNiTix alloys
23,Al0.5 B0.2 Co1 Cr1 Cu1 Fe1 Ni1,,CAST,other,,,7.6,415.0,,25.0,,,,,,,,,,10.1149/1.27441,2007,The Effect of Boron on the Corrosion Resistance of the High Entropy Alloys Al[sub 0.5]CoCrCuFeNiB[sub x]
23,Al0.5 B0.6 Co1 Cr1 Cu1 Fe1 Ni1,,CAST,other,,,7.3,505.0,,25.0,,,,,,,,,,10.1149/1.27441,2007,The Effect of Boron on the Corrosion Resistance of the High Entropy Alloys Al[sub 0.5]CoCrCuFeNiB[sub x]
23,Al0.5 B1 Co1 Cr1 Cu1 Fe1 Ni1,,CAST,other,,,7.0,736.0,,25.0,,,,,,,,,,10.1149/1.27441,2007,The Effect of Boron on the Corrosion Resistance of the High Entropy Alloys Al[sub 0.5]CoCrCuFeNiB[sub x]
23,Al0.5 Co1 Cr1 Cu1 Fe1 Ni1,,CAST,other,,,7.8,300.0,,25.0,,,,,,193,,,,10.1149/1.27441,2007,The Effect of Boron on the Corrosion Resistance of the High Entropy Alloys Al[sub 0.5]CoCrCuFeNiB[sub x]
24,Al0.5 Co1 Cr1 Cu1 Fe1 Ni1,FCC,CAST,FCC,,,7.8,225.0,,25.0,,,,,,193,,,,10.2320/matertrans.47.1395,2006,Microstructure and Properties of AlSUB0.5/SUBCoCrCuFeNiTiISUBx/SUB/I (Ix/I=0&ndash;2.0) High-Entropy Alloys
24,Al0.5 Co1 Cr1 Cu1 Fe1 Ni1 Ti1,FCC+BCC+Sec.,CAST,other,,,7.3,636.0,,25.0,,,,,,182,,,,10.2320/matertrans.47.1395,2006,Microstructure and Properties of AlSUB0.5/SUBCoCrCuFeNiTiISUBx/SUB/I (Ix/I=0&ndash;2.0) High-Entropy Alloys
24,Al0.5 Co1 Cr1 Cu1 Fe1 Ni1 Ti0.2,FCC,CAST,FCC,,,7.7,272.0,,25.0,,,,,,191,,,,10.2320/matertrans.47.1395,2006,Microstructure and Properties of AlSUB0.5/SUBCoCrCuFeNiTiISUBx/SUB/I (Ix/I=0&ndash;2.0) High-Entropy Alloys
24,Al0.5 Co1 Cr1 Cu1 Fe1 Ni1 Ti0.4,FCC,CAST,FCC,,,7.6,321.0,,25.0,,,,,,188,,,,10.2320/matertrans.47.1395,2006,Microstructure and Properties of AlSUB0.5/SUBCoCrCuFeNiTiISUBx/SUB/I (Ix/I=0&ndash;2.0) High-Entropy Alloys
24,Al0.5 Co1 Cr1 Cu1 Fe1 Ni1 Ti0.6,FCC+BCC,CAST,other,,,7.5,458.0,,25.0,,,,,,186,,,,10.2320/matertrans.47.1395,2006,Microstructure and Properties of AlSUB0.5/SUBCoCrCuFeNiTiISUBx/SUB/I (Ix/I=0&ndash;2.0) High-Entropy Alloys
24,Al0.5 Co1 Cr1 Cu1 Fe1 Ni1 Ti0.8,FCC+Sec.,CAST,other,,,7.4,590.0,,25.0,,,,,,184,,,,10.2320/matertrans.47.1395,2006,Microstructure and Properties of AlSUB0.5/SUBCoCrCuFeNiTiISUBx/SUB/I (Ix/I=0&ndash;2.0) High-Entropy Alloys
24,Al0.417 Co0.833 Cr0.833 Cu0.833 Fe0.833 Ni0.833 Ti1,FCC+BCC+Sec.,CAST,other,,,7.2,646.0,,25.0,,,,,,180,,,,10.2320/matertrans.47.1395,2006,Microstructure and Properties of AlSUB0.5/SUBCoCrCuFeNiTiISUBx/SUB/I (Ix/I=0&ndash;2.0) High-Entropy Alloys
24,Al0.357 Co0.714 Cr0.714 Cu0.714 Fe0.714 Ni0.714 Ti1,FCC+BCC+Sec.,CAST,other,,,7.2,664.0,,25.0,,,,,,178,,,,10.2320/matertrans.47.1395,2006,Microstructure and Properties of AlSUB0.5/SUBCoCrCuFeNiTiISUBx/SUB/I (Ix/I=0&ndash;2.0) High-Entropy Alloys
24,Al0.312 Co0.625 Cr0.625 Cu0.625 Fe0.625 Ni0.625 Ti1,FCC+BCC+Sec.,CAST,other,,,7.1,657.0,,25.0,,,,,,176,,,,10.2320/matertrans.47.1395,2006,Microstructure and Properties of AlSUB0.5/SUBCoCrCuFeNiTiISUBx/SUB/I (Ix/I=0&ndash;2.0) High-Entropy Alloys
24,Al0.278 Co0.556 Cr0.556 Cu0.556 Fe0.556 Ni0.556 Ti1,FCC+BCC+Sec.,CAST,other,,,7.0,667.0,,25.0,,,,,,174,,,,10.2320/matertrans.47.1395,2006,Microstructure and Properties of AlSUB0.5/SUBCoCrCuFeNiTiISUBx/SUB/I (Ix/I=0&ndash;2.0) High-Entropy Alloys
24,Al0.25 Co0.5 Cr0.5 Cu0.5 Fe0.5 Ni0.5 Ti1,FCC+BCC+Sec.,CAST,other,,,6.9,696.0,,25.0,,,,,,173,,,,10.2320/matertrans.47.1395,2006,Microstructure and Properties of AlSUB0.5/SUBCoCrCuFeNiTiISUBx/SUB/I (Ix/I=0&ndash;2.0) High-Entropy Alloys
[...]
116,Al0.581 Co0.968 Cr0.323 Fe0.323 Mo0.032 Ni1,,CAST,other,,,7.5,357.3,C,25.0,1159.7,,18.2,,,190,,,,10.1007/s00339-019-2506-z,2019,Enhancing the mechanical properties of casting eutectic high entropy alloys with Mo addition
116,Al0.6 Co1 Cr0.333 Fe0.333 Mo0.067 Ni1,,CAST,other,,,7.5,362.6,C,25.0,1250.8,,14.7,,,191,,,,10.1007/s00339-019-2506-z,2019,Enhancing the mechanical properties of casting eutectic high entropy alloys with Mo addition
116,Al0.6 Co1 Cr0.333 Fe0.333 Mo0.1 Ni0.967,,CAST,other,,,7.5,359.7,C,25.0,1198.3,,14.5,,,192,,,,10.1007/s00339-019-2506-z,2019,Enhancing the mechanical properties of casting eutectic high entropy alloys with Mo addition
118,Co1 Cr1 Fe1 Mo0.149 Ni1,,POWDER,other,,,8.3,210.0,,,,,,,,229,,,,10.3390/met9030351,2019,Gradient Distribution of Microstructures and Mechanical Properties in a FeCoCrNiMo High-Entropy Alloy during Spark Plasma Sintering
119,Co1 Cr1 Cu1 Fe1 Ni1,FCC,CAST,FCC,,,8.3,,C,25.0,300.0,,50.2,,,206,,,,10.1007/s11665-018-3837-1,2019,Improvement of Microstructure and Mechanical Properties of CoCrCuFeNi High-Entropy Alloys By V Addition
119,Co1 Cr1 Cu1 Fe1 Ni1 V0.042,,CAST,other,,,8.3,,C,25.0,303.0,,50.2,,,205,,,,10.1007/s11665-018-3837-1,2019,Improvement of Microstructure and Mechanical Properties of CoCrCuFeNi High-Entropy Alloys By V Addition
119,Co1 Cr1 Cu1 Fe1 Ni1 V0.087,,CAST,other,,,8.3,,C,25.0,307.0,,50.2,,,204,,,,10.1007/s11665-018-3837-1,2019,Improvement of Microstructure and Mechanical Properties of CoCrCuFeNi High-Entropy Alloys By V Addition
119,Co1 Cr1 Cu1 Fe1 Ni1 V0.136,,CAST,other,,,8.3,,C,25.0,330.0,,50.2,,,204,,,,10.1007/s11665-018-3837-1,2019,Improvement of Microstructure and Mechanical Properties of CoCrCuFeNi High-Entropy Alloys By V Addition
119,Co1 Cr1 Cu1 Fe1 Ni1 V0.19,,CAST,other,,,8.3,,C,25.0,616.0,,28.0,,,203,,,,10.1007/s11665-018-3837-1,2019,Improvement of Microstructure and Mechanical Properties of CoCrCuFeNi High-Entropy Alloys By V Addition
120,Co1 Cr1 Cu1 Ni1 Zn1,FCC,POWDER,FCC,500.0,5.26,8.2,,C,25.0,,,,,,185,,,,10.3390/e21020122,2019,"Phases, Microstructures and Mechanical Properties of CoCrNiCuZn High-Entropy Alloy Prepared by Mechanical Alloying and Spark Plasma Sintering"
120,Co1 Cr1 Cu1 Ni1 Zn1,FCC,POWDER,FCC,500.0,6.26,8.2,,C,25.0,,,,,,185,,,,10.3390/e21020122,2019,"Phases, Microstructures and Mechanical Properties of CoCrNiCuZn High-Entropy Alloy Prepared by Mechanical Alloying and Spark Plasma Sintering"
120,Co1 Cr1 Cu1 Ni1 Zn1,FCC,POWDER,FCC,500.0,7.84,8.2,,C,25.0,,,,,,185,,,,10.3390/e21020122,2019,"Phases, Microstructures and Mechanical Properties of CoCrNiCuZn High-Entropy Alloy Prepared by Mechanical Alloying and Spark Plasma Sintering"
120,Co1 Cr1 Cu1 Ni1 Zn1,FCC,POWDER,FCC,500.0,7.89,8.2,615.0,C,25.0,,,,,,185,,,,10.3390/e21020122,2019,"Phases, Microstructures and Mechanical Properties of CoCrNiCuZn High-Entropy Alloy Prepared by Mechanical Alloying and Spark Plasma Sintering"
121,Hf1 Nb1 Ta1 Ti1 Zr1,BCC,CAST,BCC,500.0,,9.9,359.0,T,25.0,1155.0,1212.0,12.3,,59.0,111,,,,10.3390/e21020114,2019,Microstructure and Room Temperature Mechanical Properties of Different 3 and 4 Element Medium Entropy Alloys from HfNbTaTiZr System
121,Nb1 Ta1 Ti1 Zr1,BCC,CAST,BCC,500.0,,9.1,358.0,T,25.0,1144.0,1205.0,6.4,,98.0,119,,,,10.3390/e21020114,2019,Microstructure and Room Temperature Mechanical Properties of Different 3 and 4 Element Medium Entropy Alloys from HfNbTaTiZr System
121,Nb1 Ta1 Ti1,BCC,CAST,BCC,500.0,,9.9,246.0,T,25.0,620.0,683.0,18.5,,143.0,136,,,,10.3390/e21020114,2019,Microstructure and Room Temperature Mechanical Properties of Different 3 and 4 Element Medium Entropy Alloys from HfNbTaTiZr System
121,Ta1 Ti1 Zr1,,CAST,other,500.0,,9.2,485.0,T,25.0,,284.0,0.0,,157.0,123,,,,10.3390/e21020114,2019,Microstructure and Room Temperature Mechanical Properties of Different 3 and 4 Element Medium Entropy Alloys from HfNbTaTiZr System
121,Nb1 Ti1 Zr1,BCC,CAST,BCC,500.0,,6.5,295.0,T,25.0,956.0,991.0,14.2,,88.0,96,,,,10.3390/e21020114,2019,Microstructure and Room Temperature Mechanical Properties of Different 3 and 4 Element Medium Entropy Alloys from HfNbTaTiZr System
121,Nb1 Ta0.667 Ti0.667 Zr0.333,,CAST,other,500.0,,9.3,294.0,T,25.0,822.0,852.0,0.33,,127.0,123,,,,10.3390/e21020114,2019,Microstructure and Room Temperature Mechanical Properties of Different 3 and 4 Element Medium Entropy Alloys from HfNbTaTiZr System
121,Nb0.333 Ta0.667 Ti0.667 Zr1,,CAST,other,500.0,,8.8,489.0,T,25.0,,843.0,0.0,,93.0,114,,,,10.3390/e21020114,2019,Microstructure and Room Temperature Mechanical Properties of Different 3 and 4 Element Medium Entropy Alloys from HfNbTaTiZr System
122,Ag1 Al1 Nb1 Ti1 Zn1,,ANNEAL,other,,4.75,6.7,,,,,,,,,96,,,,10.1016/j.msea.2018.12.020,2019,Microstructural characterization and mechanical behavior of an AgAlNbTiZn complex composition alloy produced using powder metallurgy (P/M)
122,Ag1 Al1 Nb1 Ti1 Zn1,,ANNEAL,other,,5.78,6.7,,,,,,,,,96,,,,10.1016/j.msea.2018.12.020,2019,Microstructural characterization and mechanical behavior of an AgAlNbTiZn complex composition alloy produced using powder metallurgy (P/M)
122,Ag1 Al1 Nb1 Ti1 Zn1,,ANNEAL,other,,5.79,6.7,,,,,,,,,96,,,,10.1016/j.msea.2018.12.020,2019,Microstructural characterization and mechanical behavior of an AgAlNbTiZn complex composition alloy produced using powder metallurgy (P/M)
122,Ag1 Al1 Nb1 Ti1 Zn1,,ANNEAL,other,,5.51,6.7,,,,,,,,,96,,,,10.1016/j.msea.2018.12.020,2019,Microstructural characterization and mechanical behavior of an AgAlNbTiZn complex composition alloy produced using powder metallurgy (P/M)
122,Ag1 Al1 Nb1 Ti1 Zn1,,ANNEAL,other,,,6.7,,,,,,,,,96,,,,10.1016/j.msea.2018.12.020,2019,Microstructural characterization and mechanical behavior of an AgAlNbTiZn complex composition alloy produced using powder metallurgy (P/M)
123,Al0.774 Fe1 Mn0.903 Ni0.484,,CAST,other,,,6.6,310.0,,,,,,,,171,,,,10.1155/2019/2157592,2019,Effect of Heat Treatment and Titanium Addition on the Microstructure and Mechanical Properties of Cast Fe31Mn28 Ni15Al24.5Tix High-Entropy Alloys
123,Al0.774 Fe1 Mn0.903 Ni0.484 Ti0.026,,CAST,other,,,6.6,330.0,,,,,,,,171,,,,10.1155/2019/2157592,2019,Effect of Heat Treatment and Titanium Addition on the Microstructure and Mechanical Properties of Cast Fe31Mn28 Ni15Al24.5Tix High-Entropy Alloys
123,Al0.774 Fe1 Mn0.903 Ni0.484 Ti0.097,,CAST,other,,,6.6,500.0,,,,,,,,169,,,,10.1155/2019/2157592,2019,Effect of Heat Treatment and Titanium Addition on the Microstructure and Mechanical Properties of Cast Fe31Mn28 Ni15Al24.5Tix High-Entropy Alloys
123,Al0.774 Fe1 Mn0.903 Ni0.484,,ANNEAL,other,,,6.6,340.0,,,,,,,,171,,,,10.1155/2019/2157592,2019,Effect of Heat Treatment and Titanium Addition on the Microstructure and Mechanical Properties of Cast Fe31Mn28 Ni15Al24.5Tix High-Entropy Alloys
123,Al0.774 Fe1 Mn0.903 Ni0.484 Ti0.026,,ANNEAL,other,,,6.6,410.0,,,,,,,,171,,,,10.1155/2019/2157592,2019,Effect of Heat Treatment and Titanium Addition on the Microstructure and Mechanical Properties of Cast Fe31Mn28 Ni15Al24.5Tix High-Entropy Alloys
123,Al0.774 Fe1 Mn0.903 Ni0.484 Ti0.097,,ANNEAL,other,,,6.6,495.0,,,,,,,,169,,,,10.1155/2019/2157592,2019,Effect of Heat Treatment and Titanium Addition on the Microstructure and Mechanical Properties of Cast Fe31Mn28 Ni15Al24.5Tix High-Entropy Alloys
123,Al0.774 Fe1 Mn0.903 Ni0.484,,ANNEAL,other,,,6.6,330.0,,,,,,,,171,,,,10.1155/2019/2157592,2019,Effect of Heat Treatment and Titanium Addition on the Microstructure and Mechanical Properties of Cast Fe31Mn28 Ni15Al24.5Tix High-Entropy Alloys
123,Al0.774 Fe1 Mn0.903 Ni0.484 Ti0.026,,ANNEAL,other,,,6.6,330.0,,,,,,,,171,,,,10.1155/2019/2157592,2019,Effect of Heat Treatment and Titanium Addition on the Microstructure and Mechanical Properties of Cast Fe31Mn28 Ni15Al24.5Tix High-Entropy Alloys
123,Al0.774 Fe1 Mn0.903 Ni0.484 Ti0.097,,ANNEAL,other,,,6.6,490.0,,,,,,,,169,,,,10.1155/2019/2157592,2019,Effect of Heat Treatment and Titanium Addition on the Microstructure and Mechanical Properties of Cast Fe31Mn28 Ni15Al24.5Tix High-Entropy Alloys
124,Al1 C1 Co1 Cr1 Fe1 Ni1,,POWDER,other,,,6.3,,,,,,,,,,,,,10.1080/00325899.2019.1576389,2019,Microstructural evolution and mechanical properties of AlCrFeNiCoC high entropy alloy produced via spark plasma sintering
125,Cr1 Cu1 Fe1 Ni1 Ti1,,CAST,other,,,7.5,,,,,,,,,187,,,,10.1007/s11106-019-00012-z,2019,"The Influence of Synthesis Conditions on the Phase Composition, Structure, and Properties of the High-Entropy Ti–Cr–Fe–Ni–Cu Alloy"
125,Cr1 Cu1 Fe1 Ni1 Ti1,,WROUGHT,other,,,7.5,,,,,,,,,187,,,,10.1007/s11106-019-00012-z,2019,"The Influence of Synthesis Conditions on the Phase Composition, Structure, and Properties of the High-Entropy Ti–Cr–Fe–Ni–Cu Alloy"
125,Cr1 Cu1 Fe1 Ni1 Ti1,,WROUGHT,other,,,7.5,,,,,,,,,187,,,,10.1007/s11106-019-00012-z,2019,"The Influence of Synthesis Conditions on the Phase Composition, Structure, and Properties of the High-Entropy Ti–Cr–Fe–Ni–Cu Alloy"
125,Cr1 Cu1 Fe1 Ni1 Ti1,,WROUGHT,other,,,7.5,,,,,,,,,187,,,,10.1007/s11106-019-00012-z,2019,"The Influence of Synthesis Conditions on the Phase Composition, Structure, and Properties of the High-Entropy Ti–Cr–Fe–Ni–Cu Alloy"
126,Co1 Cr1 Fe1 Mn1 Ni1,Other,POWDER,other,0.03,7.753,8.1,435.0,C,25.0,1100.0,,47.0,,,219,,,,10.1080/00325899.2018.1554834,2018,Microstructure and properties of CrMnFeCoNi high-entropy alloy prepared by mechanical alloying and spark plasma sintering
128,Al0.5 Cr1 Cu1 Fe1 Ni1,FCC,CAST,FCC,,,7.6,226.0,,,,,,,,190,,,,10.1007/s11665-018-3822-8,2018,Effect of Cold Deformation and Heat Treatment on the Microstructure and Mechanical Behavior of High Entropy Alloy CuCrFeNi2Al0.5
128,Al0.5 Cr1 Cu1 Fe1 Ni1,FCC,WROUGHT,FCC,,,7.6,287.0,,,,,,,,190,,,,10.1007/s11665-018-3822-8,2018,Effect of Cold Deformation and Heat Treatment on the Microstructure and Mechanical Behavior of High Entropy Alloy CuCrFeNi2Al0.5
129,Hf1 Mo1 Nb1 Ta1 Ti1 Zr1,BCC,CAST,BCC,,,10.0,,C,25.0,1512.0,,12.0,,,147,,,,10.3390/e21010015,2018,"Effects of Mo, Nb, Ta, Ti, and Zr on Mechanical Properties of Equiatomic Hf-Mo-Nb-Ta-Ti-Zr Alloys"
129,Hf1 Nb1 Ta1 Ti1 Zr1,BCC,CAST,BCC,,,9.9,,C,25.0,929.0,,50.0,,,111,,,,10.3390/e21010015,2018,"Effects of Mo, Nb, Ta, Ti, and Zr on Mechanical Properties of Equiatomic Hf-Mo-Nb-Ta-Ti-Zr Alloys"
129,Hf1 Mo1 Ta1 Ti1 Zr1,BCC,CAST,BCC,,,10.3,,C,25.0,1600.0,,4.0,,,155,,,,10.3390/e21010015,2018,"Effects of Mo, Nb, Ta, Ti, and Zr on Mechanical Properties of Equiatomic Hf-Mo-Nb-Ta-Ti-Zr Alloys"
129,Hf1 Mo1 Nb1 Ti1 Zr1,BCC,CAST,BCC,,,8.6,,C,25.0,1351.0,,20.0,,,139,,,,10.3390/e21010015,2018,"Effects of Mo, Nb, Ta, Ti, and Zr on Mechanical Properties of Equiatomic Hf-Mo-Nb-Ta-Ti-Zr Alloys"
129,Hf1 Mo1 Nb1 Ta1 Zr1,BCC,CAST,BCC,,,11.1,,C,25.0,1524.0,,16.0,,,153,,,,10.3390/e21010015,2018,"Effects of Mo, Nb, Ta, Ti, and Zr on Mechanical Properties of Equiatomic Hf-Mo-Nb-Ta-Ti-Zr Alloys"
129,Hf1 Mo1 Nb1 Ta1 Ti1,BCC,CAST,BCC,,,10.7,,C,25.0,1369.0,,27.0,,,163,,,,10.3390/e21010015,2018,"Effects of Mo, Nb, Ta, Ti, and Zr on Mechanical Properties of Equiatomic Hf-Mo-Nb-Ta-Ti-Zr Alloys"
129,Hf1 Mo1 Nb1 Ta1 Ti1 Zr1,BCC,CAST,BCC,,,10.0,,C,800.0,1007.0,,,,,147,,,,10.3390/e21010015,2018,"Effects of Mo, Nb, Ta, Ti, and Zr on Mechanical Properties of Equiatomic Hf-Mo-Nb-Ta-Ti-Zr Alloys"
129,Hf1 Nb1 Ta1 Ti1 Zr1,BCC,CAST,BCC,,,9.9,,C,800.0,535.0,,,,,111,,,,10.3390/e21010015,2018,"Effects of Mo, Nb, Ta, Ti, and Zr on Mechanical Properties of Equiatomic Hf-Mo-Nb-Ta-Ti-Zr Alloys"
129,Hf1 Mo1 Ta1 Ti1 Zr1,BCC,CAST,BCC,,,10.3,,C,800.0,1045.0,,,,,155,,,,10.3390/e21010015,2018,"Effects of Mo, Nb, Ta, Ti, and Zr on Mechanical Properties of Equiatomic Hf-Mo-Nb-Ta-Ti-Zr Alloys"
129,Hf1 Mo1 Nb1 Ti1 Zr1,BCC,CAST,BCC,,,8.6,,C,800.0,829.0,,,,,139,,,,10.3390/e21010015,2018,"Effects of Mo, Nb, Ta, Ti, and Zr on Mechanical Properties of Equiatomic Hf-Mo-Nb-Ta-Ti-Zr Alloys"
129,Hf1 Mo1 Nb1 Ta1 Zr1,BCC,CAST,BCC,,,11.1,,C,800.0,1005.0,,,,,153,,,,10.3390/e21010015,2018,"Effects of Mo, Nb, Ta, Ti, and Zr on Mechanical Properties of Equiatomic Hf-Mo-Nb-Ta-Ti-Zr Alloys"
129,Hf1 Mo1 Nb1 Ta1 Ti1,BCC,CAST,BCC,,,10.7,,C,800.0,822.0,,,,,163,,,,10.3390/e21010015,2018,"Effects of Mo, Nb, Ta, Ti, and Zr on Mechanical Properties of Equiatomic Hf-Mo-Nb-Ta-Ti-Zr Alloys"
129,Hf1 Mo1 Nb1 Ta1 Ti1 Zr1,BCC,CAST,BCC,,,10.0,,C,1000.0,814.0,,,,,147,,,,10.3390/e21010015,2018,"Effects of Mo, Nb, Ta, Ti, and Zr on Mechanical Properties of Equiatomic Hf-Mo-Nb-Ta-Ti-Zr Alloys"
129,Hf1 Nb1 Ta1 Ti1 Zr1,BCC,CAST,BCC,,,9.9,,C,1000.0,295.0,,,,,111,,,,10.3390/e21010015,2018,"Effects of Mo, Nb, Ta, Ti, and Zr on Mechanical Properties of Equiatomic Hf-Mo-Nb-Ta-Ti-Zr Alloys"
129,Hf1 Mo1 Ta1 Ti1 Zr1,BCC,CAST,BCC,,,10.3,,C,1000.0,855.0,,,,,155,,,,10.3390/e21010015,2018,"Effects of Mo, Nb, Ta, Ti, and Zr on Mechanical Properties of Equiatomic Hf-Mo-Nb-Ta-Ti-Zr Alloys"
129,Hf1 Mo1 Nb1 Ti1 Zr1,BCC,CAST,BCC,,,8.6,,C,1000.0,721.0,,,,,139,,,,10.3390/e21010015,2018,"Effects of Mo, Nb, Ta, Ti, and Zr on Mechanical Properties of Equiatomic Hf-Mo-Nb-Ta-Ti-Zr Alloys"
129,Hf1 Mo1 Nb1 Ta1 Zr1,BCC,CAST,BCC,,,11.1,,C,1000.0,927.0,,,,,153,,,,10.3390/e21010015,2018,"Effects of Mo, Nb, Ta, Ti, and Zr on Mechanical Properties of Equiatomic Hf-Mo-Nb-Ta-Ti-Zr Alloys"
129,Hf1 Mo1 Nb1 Ta1 Ti1,BCC,CAST,BCC,,,10.7,,C,1000.0,778.0,,,,,163,,,,10.3390/e21010015,2018,"Effects of Mo, Nb, Ta, Ti, and Zr on Mechanical Properties of Equiatomic Hf-Mo-Nb-Ta-Ti-Zr Alloys"
129,Hf1 Mo1 Nb1 Ta1 Ti1 Zr1,BCC,CAST,BCC,,,10.0,,C,1200.0,556.0,,,,,147,,,,10.3390/e21010015,2018,"Effects of Mo, Nb, Ta, Ti, and Zr on Mechanical Properties of Equiatomic Hf-Mo-Nb-Ta-Ti-Zr Alloys"
129,Hf1 Nb1 Ta1 Ti1 Zr1,BCC,CAST,BCC,,,9.9,,C,1200.0,92.0,,,,,111,,,,10.3390/e21010015,2018,"Effects of Mo, Nb, Ta, Ti, and Zr on Mechanical Properties of Equiatomic Hf-Mo-Nb-Ta-Ti-Zr Alloys"
129,Hf1 Mo1 Ta1 Ti1 Zr1,BCC,CAST,BCC,,,10.3,,C,1200.0,404.0,,,,,155,,,,10.3390/e21010015,2018,"Effects of Mo, Nb, Ta, Ti, and Zr on Mechanical Properties of Equiatomic Hf-Mo-Nb-Ta-Ti-Zr Alloys"
129,Hf1 Mo1 Nb1 Ti1 Zr1,BCC,CAST,BCC,,,8.6,,C,1200.0,301.0,,,,,139,,,,10.3390/e21010015,2018,"Effects of Mo, Nb, Ta, Ti, and Zr on Mechanical Properties of Equiatomic Hf-Mo-Nb-Ta-Ti-Zr Alloys"
129,Hf1 Mo1 Nb1 Ta1 Zr1,BCC,CAST,BCC,,,11.1,,C,1200.0,694.0,,,,,153,,,,10.3390/e21010015,2018,"Effects of Mo, Nb, Ta, Ti, and Zr on Mechanical Properties of Equiatomic Hf-Mo-Nb-Ta-Ti-Zr Alloys"
129,Hf1 Mo1 Nb1 Ta1 Ti1,BCC,CAST,BCC,,,10.7,,C,1200.0,699.0,,,,,163,,,,10.3390/e21010015,2018,"Effects of Mo, Nb, Ta, Ti, and Zr on Mechanical Properties of Equiatomic Hf-Mo-Nb-Ta-Ti-Zr Alloys"
129,Hf1 Mo1 Nb1 Ta1 Zr1,BCC,CAST,BCC,,,11.1,,C,1400.0,278.0,,,,,153,,,,10.3390/e21010015,2018,"Effects of Mo, Nb, Ta, Ti, and Zr on Mechanical Properties of Equiatomic Hf-Mo-Nb-Ta-Ti-Zr Alloys"
129,Hf1 Mo1 Nb1 Ta1 Ti1,BCC,CAST,BCC,,,10.7,,C,1400.0,367.0,,,,,163,,,,10.3390/e21010015,2018,"Effects of Mo, Nb, Ta, Ti, and Zr on Mechanical Properties of Equiatomic Hf-Mo-Nb-Ta-Ti-Zr Alloys"
130,Co1 Cr1 Fe1 Ni1,FCC,POWDER,FCC,0.0276,,8.2,,,,,,,,,225,,,,10.3390/coatings9010016,2018,Microstructure and Properties of CoCrFeNi(WC) High-Entropy Alloy Coatings Prepared Using Mechanical Alloying and Hot Pressing Sintering
130,C0.111 Co1 Cr1 Fe1 Ni1 W0.111,FCC,POWDER,FCC,0.0189,7.24 ,8.3,475.0,,,,,,,,,,,,10.3390/coatings9010016,2018,Microstructure and Properties of CoCrFeNi(WC) High-Entropy Alloy Coatings Prepared Using Mechanical Alloying and Hot Pressing Sintering
130,C0.429 Co1 Cr1 Fe1 Ni1 W0.429,FCC,POWDER,FCC,0.0182,8.39 ,8.7,531.0,,,,,,,,,,,,10.3390/coatings9010016,2018,Microstructure and Properties of CoCrFeNi(WC) High-Entropy Alloy Coatings Prepared Using Mechanical Alloying and Hot Pressing Sintering
131,Al0.267 Co1 Cr0.667 Fe0.667 Ni0.667 Ti0.2,,POWDER,other,,,7.6,515.0,C,25.0,2012.0,,,17.52 ,,205,,,,10.5755/j01.ms.25.3.19452,2019,Enhancement of Mechanical Properties and Corrosion Resistance of Ultra-Fine Grain Al0.4FeCrCo1.5NiTi0.3 High-Entropy Alloy by MA and SPS Technologies
132,Hf1 Nb1 Ta1 Ti1 Zr1,BCC,CAST,BCC,,,9.9,,T,25.0,1438.0,1218.0,5.0,,91.5,111,,,,10.1007/s11661-018-4646-8,2018,Effect of Cold Deformation and Annealing on the Microstructure and Tensile Properties of a HfNbTaTiZr Refractory High Entropy Alloy
132,Hf1 Nb1 Ta1 Ti1 Zr1,BCC,OTHER,BCC,,,9.9,,T,25.0,1159.0,1127.0,4.7,,99.2,111,,,,10.1007/s11661-018-4646-8,2018,Effect of Cold Deformation and Annealing on the Microstructure and Tensile Properties of a HfNbTaTiZr Refractory High Entropy Alloy
132,Hf1 Nb1 Ta1 Ti1 Zr1,BCC,OTHER,BCC,,,9.9,,T,25.0,1134.0,1134.0,7.6,,109.1,111,,,,10.1007/s11661-018-4646-8,2018,Effect of Cold Deformation and Annealing on the Microstructure and Tensile Properties of a HfNbTaTiZr Refractory High Entropy Alloy
132,Hf1 Nb1 Ta1 Ti1 Zr1,BCC,OTHER,BCC,,,9.9,,T,25.0,1094.0,1066.0,6.0,,105.3,111,,,,10.1007/s11661-018-4646-8,2018,Effect of Cold Deformation and Annealing on the Microstructure and Tensile Properties of a HfNbTaTiZr Refractory High Entropy Alloy
132,Hf1 Nb1 Ta1 Ti1 Zr1,BCC,OTHER,BCC,,,9.9,,T,25.0,1071.0,964.0,4.6,,91.6,111,,,,10.1007/s11661-018-4646-8,2018,Effect of Cold Deformation and Annealing on the Microstructure and Tensile Properties of a HfNbTaTiZr Refractory High Entropy Alloy
132,Hf1 Nb1 Ta1 Ti1 Zr1,BCC,OTHER,BCC,24.4,,9.9,,T,25.0,1107.0,977.0,13.9,,92.6,111,,,,10.1007/s11661-018-4646-8,2018,Effect of Cold Deformation and Annealing on the Microstructure and Tensile Properties of a HfNbTaTiZr Refractory High Entropy Alloy
132,Hf1 Nb1 Ta1 Ti1 Zr1,BCC,OTHER,BCC,31.3,,9.9,,T,25.0,1115.0,830.0,18.5,,92.6,111,,,,10.1007/s11661-018-4646-8,2018,Effect of Cold Deformation and Annealing on the Microstructure and Tensile Properties of a HfNbTaTiZr Refractory High Entropy Alloy
132,Hf1 Nb1 Ta1 Ti1 Zr1,BCC,OTHER,BCC,38.4,,9.9,,T,25.0,1114.0,935.0,12.2,,101.3,111,,,,10.1007/s11661-018-4646-8,2018,Effect of Cold Deformation and Annealing on the Microstructure and Tensile Properties of a HfNbTaTiZr Refractory High Entropy Alloy
132,Hf1 Nb1 Ta1 Ti1 Zr1,BCC,OTHER,BCC,50.1,,9.9,,,,,,,,,111,,,,10.1007/s11661-018-4646-8,2018,Effect of Cold Deformation and Annealing on the Microstructure and Tensile Properties of a HfNbTaTiZr Refractory High Entropy Alloy
132,Hf1 Nb1 Ta1 Ti1 Zr1,BCC,OTHER,BCC,21.9,,9.9,,,,,,,,,111,,,,10.1007/s11661-018-4646-8,2018,Effect of Cold Deformation and Annealing on the Microstructure and Tensile Properties of a HfNbTaTiZr Refractory High Entropy Alloy
132,Hf1 Nb1 Ta1 Ti1 Zr1,BCC,OTHER,BCC,75.5,,9.9,,,,,,,,,111,,,,10.1007/s11661-018-4646-8,2018,Effect of Cold Deformation and Annealing on the Microstructure and Tensile Properties of a HfNbTaTiZr Refractory High Entropy Alloy
133,Al1 Nb1 Ti1 Zr1,B2,CAST,other,250.0,5.85,5.6,422.0,C,25.0,1509.0,,8.6,,,90,,,,10.1080/02670836.2018.1446267,2018,Microstructure and mechanical properties of a novel refractory AlNbTiZr high-entropy alloy
133,Al1 Nb1 Ti1 Zr1,,ANNEAL,other,,,5.6,418.0,C,25.0,1579.0,,17.8,,,90,,,,10.1080/02670836.2018.1446267,2018,Microstructure and mechanical properties of a novel refractory AlNbTiZr high-entropy alloy
134,Al1 Nb1 Ti1 V1 Zr0.5,,,other,,5.64,5.6,,C,25.0,1480.0,,50.0,,,101,,,,10.1016/j.matlet.2015.08.099,2015,An AlNbTiVZr0.5 high-entropy alloy combining high specific strength and good ductility
135,Al1 Nb1 Ti1 Zr1,,,other,,5.79,5.6,539.6,C,25.0,1080.0,,5.9,,,90,,,,10.1179/1743284715Y.0000000032,2015,"Effect of Al on structure and mechanical properties of AlxNbTiVZr (x = 0, 0.5, 1, 1.5) high entropy alloys"
136,Nb1 Ti1 V1 Zr1,,,other,,6.52,6.4,335.0,C,25.0,1105.0,,50.0,,,104,,,,10.1016/j.actamat.2012.11.032,2013,"Low-density, refractory multi-principal element alloys of the Cr–Nb–Ti–V–Zr system: Microstructure and phase analysis"
136,Cr1 Nb1 Ti1 Zr1,,,other,,6.67,6.7,418.0,C,25.0,1260.0,,6.0,,,142,,,,10.1016/j.actamat.2012.11.032,2013,"Low-density, refractory multi-principal element alloys of the Cr–Nb–Ti–V–Zr system: Microstructure and phase analysis"