File: 2019_data/2019_data.csv
REFERENCE: tag,REFERENCE: doi,FORMULA,Internal Reference #,Original DOI,PROPERTY: Type of phases,PROPERTY: Single/Multiphase,PROPERTY: synthesis method,PROPERTY: grain size ($\mu$m),PROPERTY: Exp. Density (g/cm$^3$),PROPERTY: HV,PROPERTY: Type of test,PROPERTY: Test temperature ($^\circ$C),PROPERTY: YS (MPa),PROPERTY: UTS (MPa),PROPERTY: Elongation (%),PROPERTY: Elongation plastic (%),PROPERTY: Exp. Young modulus (GPa),PROPERTY: O content (wppm),PROPERTY: N content (wppm),PROPERTY: C content (wppm),REFERENCE: comment,
J2,10.1016/j.scriptamat.2018.08.048,Al0.3CoCrFeNi,,,FCC + B2 + Sigma,M,CR + A,0.71 $\pm$ 0.35,,,T,25,900,1074,25,,,,,,,
J3,10.1016/j.jallcom.2018.08.093,Fe40Mn25Cr20Ni15,,,FCC + BCC,M,AC,75,,,C,25,219,,,,,,,,,
J3,10.1016/j.jallcom.2018.08.093,Fe40Mn25Cr20Ni15Al2,,,FCC + BCC,M,AC,,,,C,25,354,,,,,,,,,
J3,10.1016/j.jallcom.2018.08.093,Fe40Mn25Cr20Ni15Al6,,,FCC + BCC,M,AC,,,,C,25,550,,,,,,,,,
J3,10.1016/j.jallcom.2018.08.093,Fe40Mn25Cr20Ni15Al10,,,B2 + BCC,M,AC,175,,,C,25,994,,,,,,,,,
J3,10.1016/j.jallcom.2018.08.093,Fe40Mn25Cr20Ni15Al14,,,B2 + BCC,M,AC,175,,,C,25,942,,,,,,,,,
J3,10.1016/j.jallcom.2018.08.093,Fe40Mn25Cr20Ni15,,,FCC + BCC,M,AC,,,,C,400,132,,,,,,,,,
J3,10.1016/j.jallcom.2018.08.093,Fe40Mn25Cr20Ni15Al2,,,FCC + BCC,M,AC,,,,C,400,260,,,,,,,,,
J3,10.1016/j.jallcom.2018.08.093,Fe40Mn25Cr20Ni15Al6,,,FCC + BCC,M,AC,,,,C,400,469,,,,,,,,,
J3,10.1016/j.jallcom.2018.08.093,Fe40Mn25Cr20Ni15Al10,,,B2 + BCC,M,AC,,,,C,400,943,,,,,,,,,
J3,10.1016/j.jallcom.2018.08.093,Fe40Mn25Cr20Ni15Al14,,,B2 + BCC,M,AC,,,,C,400,833,,,,,,,,,
J3,10.1016/j.jallcom.2018.08.093,Fe40Mn25Cr20Ni15,,,FCC + BCC,M,AC,,,,C,600,115,,,,,,,,,
J3,10.1016/j.jallcom.2018.08.093,Fe40Mn25Cr20Ni15Al2,,,FCC + BCC,M,AC,,,,C,600,155,,,,,,,,,
J3,10.1016/j.jallcom.2018.08.093,Fe40Mn25Cr20Ni15Al6,,,FCC + BCC,M,AC,,,,C,600,272,,,,,,,,,
J3,10.1016/j.jallcom.2018.08.093,Fe40Mn25Cr20Ni15Al10,,,B2 + BCC,M,AC,,,,C,600,359,,,,,,,,,
J3,10.1016/j.jallcom.2018.08.093,Fe40Mn25Cr20Ni15Al14,,,B2 + BCC,M,AC,,,,C,600,326,,,,,,,,,
J4-8,10.1016/j.actamat.2013.06.018,CoCrFeMnNi,8,10.1016/j.actamat.2013.06.018,FCC,S,CR + A,4.4,,,T,25,370,670,56,,,,,,switched to engineering stress strain ,https://doi.org/10.1016/j.actamat.2013.06.018
J4-18,10.1016/j.actamat.2017.03.069,Co10Cr10Fe50Mn30,18,10.1016/j.actamat.2017.03.069,FCC + HCP,M,A,45,,,T,25,250,730,50,,,,,,switched to engineering stress strain ,
J4-18,10.1016/j.actamat.2017.03.069,Co10Cr10Fe50Mn30,18,10.1016/j.actamat.2017.03.069,FCC + HCP,M,CR + A,4.5,,,T,25,330,870,75,,,,,,switched to engineering stress strain ,
J4-18,10.1016/j.actamat.2017.03.069,Co10Cr10Fe50Mn30,18,10.1016/j.actamat.2017.03.069,FCC + HCP,M,CR + A,6,,,T,25,280,800,65,,,,,,switched to engineering stress strain ,
J4-18,10.1016/j.actamat.2017.03.069,Co10Cr10Fe50Mn30,18,10.1016/j.actamat.2017.03.069,FCC + HCP,M,CR + A,15,,,T,25,350,830,63,,,,,,switched to engineering stress strain ,
J4-34,10.1038/s41598-017-16509-9,Co10Cr10Fe50Mn30,34,10.1038/s41598-017-16509-9,FCC + HCP,M,HR + A,6.5,,,T,25,298,1400,45,,,,,,removed true stress strain values,
J4-34,10.1038/s41598-017-16509-9,Co10Cr10Fe50Mn30,34,10.1038/s41598-017-16509-9,FCC + HCP,M,HR + A,5.2,,,T,25,400,1200,42,,,,,,removed true stress strain values,
J4-60,10.1016/j.matlet.2017.04.072,Al7Co23Cr23Fe23Ni23,60,10.1016/j.matlet.2017.04.072,FCC + B2,M,,0.7,,,T,25,860,1050,48,,,,,,"Data extracted from Table 6, does not belong in below data",
J4-60,10.1016/j.matlet.2017.04.072,Al7Co23Cr23Fe23Ni23,60,10.1016/j.matlet.2017.04.072,FCC + B2,M,,2.7,,,T,25,690,930,51,,,,,,,
J4-60,10.1016/j.matlet.2017.04.072,Al7Co23Cr23Fe23Ni23,60,10.1016/j.matlet.2017.04.072,FCC + B2,M,,3.8,,,T,25,550,800,64,,,,,,,
J4-60,10.1016/j.matlet.2017.04.072,Al7Co23Cr23Fe23Ni23,60,10.1016/j.matlet.2017.04.072,FCC,S,,53,,,T,25,260,620,87,,,,,,,
J4-60,10.1016/j.matlet.2017.04.072,Al7Co23Cr23Fe23Ni23,60,10.1016/j.matlet.2017.04.072,FCC + BCC,M,CR + A,,,,,,,,,,,,,,,
J4-40,10.1016/j.scriptamat.2016.06.019,Al7Co23Cr23Fe23Ni23,40,10.1016/j.scriptamat.2016.06.019,FCC,S,CR + A,,,,,,,,,,,,,,,
J4-40,10.1016/j.scriptamat.2016.06.019,Al7Co23Cr23Fe23Ni23,40,10.1016/j.scriptamat.2016.06.019,FCC + L12,M,CR + A,,,,,,,,,,,,,,,
J4-40,10.1016/j.scriptamat.2016.06.019,Al7Co23Cr23Fe23Ni23,40,10.1016/j.scriptamat.2016.06.019,FCC + L12,M,CR + A,,,,,,,,,,,,,,,
J4-39,10.1016/j.matdes.2017.02.072,Al7Co23Cr23Fe23Ni23,39,10.1016/j.matdes.2017.02.072,FCC,S,CR + A,144,,,T,25,159,410,65,,,,,,,
J4-39,10.1016/j.matdes.2017.02.072,Al7Co23Cr23Fe23Ni23,39,10.1016/j.matdes.2017.02.072,FCC + B2,M,CR + A,144,,,T,25,215,520,43,,,,,,,
J4-39,10.1016/j.matdes.2017.02.072,Al7Co23Cr23Fe23Ni23,39,10.1016/j.matdes.2017.02.072,FCC + L12,M,CR + A,144,,,T,25,285,540,55,,,,,,,
J4-39,10.1016/j.matdes.2017.02.072,Al7Co23Cr23Fe23Ni23,39,10.1016/j.matdes.2017.02.072,FCC,S,CR + A,23,,,T,25,263,589,60,,,,,,,
J4-39,10.1016/j.matdes.2017.02.072,Al7Co23Cr23Fe23Ni23,39,10.1016/j.matdes.2017.02.072,FCC + L12 + B2,M,CR + A,23,,,T,25,490,840,45,,,,,,,
J4-61,10.1016/j.actamat.2017.03.066,Al7Co23Cr23Fe23Ni23,61,10.1016/j.actamat.2017.03.066,FCC + BCC,M,A,,,,,,,,,,,,,,,
J4-62,10.1016/j.jallcom.2008.12.088,Al7Co23Cr23Fe23Ni23,62,10.1016/j.jallcom.2008.12.088,FCC + L12,M,AC,,,,T,25,175,335,58,,,,,,Added and replaced data sets,
J4-62,10.1016/j.jallcom.2008.12.088,Al7Co23Cr23Fe23Ni23,62,10.1016/j.jallcom.2008.12.088,FCC + L12,M,A,,,,T,25,305,525,44,,,,,,,
J4-62,10.1016/j.jallcom.2008.12.088,Al7Co23Cr23Fe23Ni23,62,10.1016/j.jallcom.2008.12.088,FCC + B2,M,A,,,,T,25,280,570,44,,,,,,,
J4-63,10.1016/j.jallcom.2013.11.084,Al7Co23Cr23Fe23Ni23,63,10.1016/j.jallcom.2013.11.084,FCC,S,Aged,,,,,,,,,,,,,,,
J4-63,10.1016/j.jallcom.2013.11.084,Al7Co23Cr23Fe23Ni23,63,10.1016/j.jallcom.2013.11.084,FCC,S,Aged,,,,,,,,,,,,,,,
J4-64,10.1016/j.matdes.2016.05.079,Al7Co23Cr23Fe23Ni23,64,10.1016/j.matdes.2016.05.079,FCC + B2,M,Aged,,,,,,,,,,,,,,,
J4-71,10.1016/j.jallcom.2017.03.307,AlCoCrFeNi,71,10.1016/j.jallcom.2017.03.307,BCC + B2,M,AC,,,,T,25,395,400,1,,,,,,I don't like this reference...,
J4-70,10.1016/j.jallcom.2016.05.034,AlCoCrFeNi,70,10.1016/j.jallcom.2016.05.034,BCC + B2,M,AC,,,,C,25,1380,,10,,,,,,,
J4-70,10.1016/j.jallcom.2016.05.034,AlCoCrFeNi,70,10.1016/j.jallcom.2016.05.034,BCC + $\sigma$ + B2 + FCC,M,A,,,,C,25,1430,,1.6,,,,,,,
J4-70,10.1016/j.jallcom.2016.05.034,AlCoCrFeNi,70,10.1016/j.jallcom.2016.05.034,BCC + B2 + FCC,M,A,,,,C,25,1690,,2.7,,,,,,,
J4-70,10.1016/j.jallcom.2016.05.034,AlCoCrFeNi,70,10.1016/j.jallcom.2016.05.034,BCC + B2 + FCC,M,A,,,,C,25,1220,,13,,,,,,,
J4-70,10.1016/j.jallcom.2016.05.034,AlCoCrFeNi,70,10.1016/j.jallcom.2016.05.034,BCC + B2 + FCC,M,A,,,,C,25,1450,,20,,,,,,,
J4-71,10.1016/j.jallcom.2017.03.307,AlCoCrFeNi,71,10.1016/j.jallcom.2017.03.307,FCC + BCC,M,A,,,,T,25,900,935,0.8,,,,,,I don't like this reference...,
J4-73,10.1016/j.matlet.2016.01.096,Al17Cr17Fe33Ni33,73,10.1016/j.matlet.2016.01.096,FCC + BCC + B2,M,AC,,,,T,25,796,1437,15.7,,,,,,,
J4-74,10.1016/j.actamat.2016.11.016,Al17Co17Cr17Fe17Ni33.3,74,10.1016/j.actamat.2016.11.016,L12 + B2,M,,,,,T,25,545,1030,16.5,,,,,,the reference has more accurate numbers: https://sci-hub.tw/https://doi.org/10.1016/j.actamat.2016.11.016,
J4-74,10.1016/j.actamat.2016.11.016,Al16Co16Cr16Fe16Ni34.4,74,10.1016/j.actamat.2016.11.016,L12 + B2,M,,,,,T,25,545,1050,16.5,,,,,,the reference has more accurate numbers: https://sci-hub.tw/https://doi.org/10.1016/j.actamat.2016.11.017,
J4-74,10.1016/j.actamat.2016.11.016,Al16Co16Cr16Fe16Ni35.5,74,10.1016/j.actamat.2016.11.016,L12 + B2,M,,,,,T,25,545,1110,20,,,,,,the reference has more accurate numbers: https://sci-hub.tw/https://doi.org/10.1016/j.actamat.2016.11.018,
J4-74,10.1016/j.actamat.2016.11.016,Al17Co17Cr17Fe17Ni33.3,74,10.1016/j.actamat.2016.11.016,,,,,,,T,-70,580,1034,10.5,,,,,,the reference has more accurate numbers: https://sci-hub.tw/https://doi.org/10.1016/j.actamat.2016.11.019,
J4-74,10.1016/j.actamat.2016.11.016,Al16Co16Cr16Fe16Ni34.4,74,10.1016/j.actamat.2016.11.016,,,,,,,T,-70,595,1168,15.8,,,,,,the reference has more accurate numbers: https://sci-hub.tw/https://doi.org/10.1016/j.actamat.2016.11.020,
J4-74,10.1016/j.actamat.2016.11.016,Al16Co16Cr16Fe16Ni35.5,74,10.1016/j.actamat.2016.11.016,,,,,,,T,-70,570,1143,18,,,,,,the reference has more accurate numbers: https://sci-hub.tw/https://doi.org/10.1016/j.actamat.2016.11.021,
J4-74,10.1016/j.actamat.2016.11.016,Al17Co17Cr17Fe17Ni33.3,74,10.1016/j.actamat.2016.11.016,,,,,,,T,-192,700,1000,4,,,,,,UTS range (low value recorded),
J4-74,10.1016/j.actamat.2016.11.016,Al16Co16Cr16Fe16Ni34.4,74,10.1016/j.actamat.2016.11.016,,,,,,,T,-192,700,1000,7,,,,,,UTS range (low value recorded),
J4-74,10.1016/j.actamat.2016.11.016,Al16Co16Cr16Fe16Ni35.5,74,10.1016/j.actamat.2016.11.016,,,,,,,T,-192,700,1000,9,,,,,,UTS range (low value recorded),
J4-77,10.1016/j.scriptamat.2016.04.014,Al12Co18Cr18Fe35Ni18,77,10.1016/j.scriptamat.2016.04.014,BCC + B2,M,AC,,,,T,25,866,1223,7.9,,,,,,,
J4-77,10.1016/j.scriptamat.2016.04.014,Al12Co18Cr18Fe35Ni18,77,10.1016/j.scriptamat.2016.04.014,,,AC,,,,T,650,400,468,6.3,,,,,,,
J4-77,10.1016/j.scriptamat.2016.04.014,Al12Co18Cr18Fe35Ni18,77,10.1016/j.scriptamat.2016.04.014,,,AC,,,,T,700,220,340,5.4,,,,,,,
J4-77,10.1016/j.scriptamat.2016.04.014,Al12Co18Cr18Fe35Ni18,77,10.1016/j.scriptamat.2016.04.014,,,AC,,,,C,25,1166,,30.2,,,,,,,
J4-85,10.1016/j.scriptamat.2017.05.019,Co35Cr15Fe20Ni20Mo10,85,10.1016/j.scriptamat.2017.05.019,FCC,S,AC,,,,T,25,350,720,21.9,,,,,,wrong processing ,
J4-85,10.1016/j.scriptamat.2017.05.019,Co35Cr15Fe20Ni20Mo10,85,10.1016/j.scriptamat.2017.05.019,FCC + $\mu$,M,CR + A,,,,T,25,1311,1410,12.1,,,,,,wrong processing ,
J4-85,10.1016/j.scriptamat.2017.05.019,Co35Cr15Fe20Ni20Mo10,85,10.1016/j.scriptamat.2017.05.019,FCC + $\mu$,M,CR + A,,,,T,25,1212,1360,14.9,,,,,,wrong processing ,
J4-85,10.1016/j.scriptamat.2017.05.019,Co35Cr15Fe20Ni20Mo10,85,10.1016/j.scriptamat.2017.05.019,FCC + $\mu$,M,CR + A,,,,T,25,1028,1249,18.3,,,,,,wrong processing ,
J4-85,10.1016/j.scriptamat.2017.05.019,Co35Cr15Fe20Ni20Mo10,85,10.1016/j.scriptamat.2017.05.019,FCC + $\mu$,M,CR + A,,,,T,25,879,1194,25.4,,,,,,wrong processing ,
J4-85,10.1016/j.scriptamat.2017.05.019,Co35Cr15Fe20Ni20Mo10,85,10.1016/j.scriptamat.2017.05.019,FCC + $\mu$,M,CR + A,,,,T,25,799,1127,28.2,,,,,,wrong processing ,
J4-85,10.1016/j.scriptamat.2017.05.019,Co35Cr15Fe20Ni20Mo10,85,10.1016/j.scriptamat.2017.05.019,FCC,S,CR + A,,,,T,25,350,918,62.4,,,,,,wrong processing ,
J4-79,10.1016/j.actamat.2016.06.063,Co25Cr25Fe25Ni25,79,10.1016/j.actamat.2016.06.063,FCC,S,AC,,,,T,25,155,472.4,58.9,,,,,,,
J4-79,10.1016/j.actamat.2016.06.063,Co24Cr24Fe24Ni24Mo2,79,10.1016/j.actamat.2016.06.063,,,AC,,,,T,25,198.8,479,51.1,,,,,,,
J4-79,10.1016/j.actamat.2016.06.063,Co24Cr24Fe24Ni24Mo5,79,10.1016/j.actamat.2016.06.063,,,AC,,,,T,25,254.7,589.6,55.1,,,,,,,
J4-79,10.1016/j.actamat.2016.06.063,Co23Cr23Fe23Ni23Mo7,79,10.1016/j.actamat.2016.06.063,FCC + $\sigma$,M,AC,,,,T,25,305.3,709.7,49.3,,,,,,,
J4-79,10.1016/j.actamat.2016.06.063,Co23Cr23Fe23Ni23Mo7,79,10.1016/j.actamat.2016.06.063,FCC + $\mu$ + $\sigma$,M,CR + A,1 - 5,,,T,25,815.5,1186.5,18.9,,,,,,not the actual grain size. precipitate sizes currently recorded,
J4-79,10.1016/j.actamat.2016.06.063,Co23Cr23Fe23Ni23Mo7,79,10.1016/j.actamat.2016.06.063,FCC + $\mu$ + $\sigma$,M,CR + A,0.2 - 6,,,T,25,646.7,1042,32.5,,,,,,,
J4-79,10.1016/j.actamat.2016.06.063,Co23Cr23Fe23Ni23Mo7,79,10.1016/j.actamat.2016.06.063,FCC + $\mu$ + $\sigma$,M,CR + A,0.2 - 3,,,T,25,683.7,1066.6,30.4,,,,,,,
J4-38,10.1117/1.JEI.26.4.043022,CoCrFeMnNi,38,10.1117/1.JEI.26.4.043022,FCC,,HF+A,13,,,T,25,243,558,50,,,,,,processing isn't technically as cast because it's forged. so hr ,"Further going back to the original paper, i disagree with their noted elongation. Plus the paper switched two of these (https://www.tandfonline.com/doi/full/10.1080/02670836.2017.1342367?scroll=top&needAccess=true) (ef = 58)"
J4-38,10.1117/1.JEI.26.4.043022,(CoCrFeMnNi)98C2,38,10.1117/1.JEI.26.4.043022,FCC + Carbide,,HF+A,8,,,T,25,446,723,15,,,,,,processing isn't technically as cast because it's forged. so hr ,"Further going back to the original paper, i disagree with their noted elongation Plus the paper switched two of these (https://www.tandfonline.com/doi/full/10.1080/02670836.2017.1342367?scroll=top&needAccess=true) (ef = 15.5)"
J4-38,10.1117/1.JEI.26.4.043022,CoCrFeMnNi,38,10.1117/1.JEI.26.4.043022,FCC,,HF+CR+A,7,,,T,25,249,621,41,,,,,,,ef = 47
J4-38,10.1117/1.JEI.26.4.043022,(CoCrFeMnNi)98C2,38,10.1117/1.JEI.26.4.043022,FCC + Carbide,,HF+CR+A,4,,,T,25,581,857,28,,,,,,fixed grain size ,ef = 35
J4-78,10.1016/j.actamat.2015.08.076,CoCrFeNi,78,10.1016/j.actamat.2015.08.076,FCC,S,A,,,,T,25,190,453,70,,,,,,,
J4-78,10.1016/j.actamat.2015.08.076,Al4Co24Cr24Fe24Ni24Ti2,78,10.1016/j.actamat.2015.08.076,FCC,S,A,289.7,,,T,25,210,503,70,,,,,,added grain size ,
J4-78,10.1016/j.actamat.2015.08.076,Al4Co24Cr24Fe24Ni24Ti2,78,10.1016/j.actamat.2015.08.076,FCC + L12 + L21,M,CR + A,15.7,,,T,25,645,1094,39,,,,,,added grain size ,
J4-78,10.1016/j.actamat.2015.08.076,Al4Co24Cr24Fe24Ni24Ti2,78,10.1016/j.actamat.2015.08.076,FCC + L12 + L21,M,CR + A,2.8,,,T,25,1005,1273,17,,,,,,added grain size ,
J4-88,10.1016/j.ultramic.2015.06.009,Al8Co17Cr17Cu8Fe17Ni33,88,10.1016/j.ultramic.2015.06.009,,,A,,,168 $\pm$ 5,,,,,,,,,,,,
J4-88,10.1016/j.ultramic.2015.06.009,Al8Co17Cr17Cu8Fe17Ni33,88,10.1016/j.ultramic.2015.06.009,,,A,,,328 $\pm$ 7,,,,,,,,,,,,
J4,10.1016/j.matchar.2018.06.036,Al8Co17Cr17Cu8Fe17Ni33,,This Article,,,A,,,206 $\pm$ 5,,,,,,,,,,,,
J4-88,10.1016/j.ultramic.2015.06.009,Al8Co17Cr14Cu8Fe17Ni35W0.1Mo0.1Ti1,88,10.1016/j.ultramic.2015.06.009,,,AC,,,231 $\pm$ 12,,,,,,,,,,,,
J4-88,10.1016/j.ultramic.2015.06.009,Al8Co17Cr14Cu8Fe17Ni35W0.1Mo0.1Ti1,88,10.1016/j.ultramic.2015.06.009,,,A,,,178 $\pm$ 7,,,,,,,,,,,,
J4-88,10.1016/j.ultramic.2015.06.009,Al8Co17Cr14Cu8Fe17Ni35W0.1Mo0.1Ti1,88,10.1016/j.ultramic.2015.06.009,,,A,,,343 $\pm$ 6,,,,,,,,,,,,
J4,10.1016/j.matchar.2018.06.036,Al8Co17Cr14Cu8Fe17Ni35W0.1Mo0.1Ti1,,This Article,,,A,,,171 $\pm$ 7,,,,,,,,,,,,
J4-30,10.1007/s11837-015-1484-7,Al10Co25Cr8Fe15Ni36Ti6,30,10.1007/s11837-015-1484-7,,,AC,,,343 $\pm$ 22,,,,,,,,,,,,
J4-30,10.1007/s11837-015-1484-7,Al10Co25Cr8Fe15Ni36Ti6,30,10.1007/s11837-015-1484-7,,,A,,,341 $\pm$ 12,,,,,,,,,,,,
J4-30,10.1007/s11837-015-1484-7,Al10Co25Cr8Fe15Ni36Ti6,30,10.1007/s11837-015-1484-7,FCC + L12 + C1,M,A,,,345 $\pm$ 14,T,25,568,786,12,,,,,,,
J4-30,10.1007/s11837-015-1484-7,Al10Co25Cr8Fe15Ni36Ti6,30,10.1007/s11837-015-1484-7,FCC + L12 + C1,M,A,,,345 $\pm$ 18,T,25,596,1039,20,,,,,,,
J4-30,10.1007/s11837-015-1484-7,Al10Co25Cr8Fe15Ni36Ti6,30,10.1007/s11837-015-1484-7,FCC + L12 + C1,M,A,,,345 $\pm$ 14,T,700,487,702,18,,,,,,,
J4-30,10.1007/s11837-015-1484-7,Al10Co25Cr8Fe15Ni36Ti6,30,10.1007/s11837-015-1484-7,FCC + L12 + C1,M,A,,,345 $\pm$ 18,T,700,486,624,11,,,,,,,
J4-75,10.1016/j.msea.2016.11.019,Al23Cr26Fe26Ni26,75,10.1016/j.msea.2016.11.019,BCC + B2,M,AC,,,,C,25,770,,37.1,,,,,,,
J4-75,10.1016/j.msea.2016.11.019,AlCrFeNi,75,10.1016/j.msea.2016.11.019,BCC + B2,M,AC,,,,C,25,843.2,,34.6,,,,,,,
J4-75,10.1016/j.msea.2016.11.019,Al27Cr24Fe24Ni24,75,10.1016/j.msea.2016.11.019,BCC + B2,M,AC,,,,C,25,1044,,27.1,,,,,,,
J4-75,10.1016/j.msea.2016.11.019,Al29Cr24Fe24Ni24,75,10.1016/j.msea.2016.11.019,BCC + B2,M,AC,,,,C,25,906.8,,31.4,,,,,,,
J4-75,10.1016/j.msea.2016.11.019,Al30Cr23Fe23Ni23,75,10.1016/j.msea.2016.11.019,BCC + B2,M,AC,,,,C,25,1122.8,,24.7,,,,,,,
J4-73,10.1016/j.matlet.2016.01.096,Al17Cr17Fe34Ni34,73,10.1016/j.matlet.2016.01.096,BCC + B2,M,AC,,,,C,25,,,17,,,,,,,
J4-109,10.1016/j.matdes.2013.12.048,AlCoCrFeNi,109,10.1016/j.matdes.2013.12.048,BCC + B2,M,AC,,,,C,25,,,22.7,,,,,,,
J4-53,10.1016/j.jmst.2014.09.011,Al18Cr18Fe17Ni33Ti9,53,10.1016/j.jmst.2014.09.011,BCC + B2 + L12,M,AC,,,,C,25,,,16.3,,,,,,,
J4-53,10.1016/j.jmst.2014.09.011,Al18Cr18Fe17Ni33Ti9,53,10.1016/j.jmst.2014.09.011,BCC + B2 + L12,M,A,,,,C,25,,,19.8,,,,,,,
J4-50,10.1007/s11665-015-1767-8,Cr22Fe22Ni22V11W22,50,10.1007/s11665-015-1767-8,FCC + BCC + $\sigma$,M,AC,,,,C,25,,,7.3,,,,,,,
J4-110,10.1016/j.msea.2015.09.089,Al17Cr17Cu17Fe17Ni33,110,10.1016/j.msea.2015.09.089,FCC + BCC + B2,M,AC,,,,C,25,,,30,,,,,,,
J4-96,10.1134/S0031918X17060084,CoCrFeMnNi,96,10.1134/S0031918X17060084,FCC,S,A,,,,C,25,230,,75,,,,,,,
J4-96,10.1134/S0031918X17060084,Co19Cr19Fe19Mn19Ni19V5,96,10.1134/S0031918X17060084,FCC + $\sigma$,M,A,,,,C,25,200,,75,,,,,,,
J4-96,10.1134/S0031918X17060084,Co18Cr18Fe18Mn18Ni18V9,96,10.1134/S0031918X17060084,FCC + $\sigma$,M,A,,,,C,25,620,,75,,,,,,,
J4-96,10.1134/S0031918X17060084,Co17Cr17Fe17Mn17Ni17V13,96,10.1134/S0031918X17060084,FCC + $\sigma$,M,A,,,,C,25,780,,8,,,,,,,
J4-96,10.1134/S0031918X17060084,CoCrFeMnNiV,96,10.1134/S0031918X17060084,FCC + $\sigma$,M,A,,,,C,25,1700,,1,,,,,,,
J4-111,10.1016/j.msea.2015.02.072,Al7Co23Cr23Fe23Ni23,111,10.1016/j.msea.2015.02.072,FCC,S,AC,,,,C,25,,,25,,,,,,,
J4-112,10.1016/j.jallcom.2013.12.210,CoCrFeNi,112,10.1016/j.jallcom.2013.12.210,FCC,S,AC,,,,C,25,,,83,,,,,,,
J4-74,10.1016/j.actamat.2016.11.016,Al17Cr17Co17Fe17Ni33.3,74,10.1016/j.actamat.2016.11.016,FCC + B2,M,AC,,,,T,25,545,1030,16.5,,,,,,the values given by the review are a little off from the values provided by the reference itself https://sci-hub.tw/https://doi.org/10.1016/j.actamat.2016.11.016,
J4-74,10.1016/j.actamat.2016.11.016,Al16Cr16Co16Fe16Ni34.4,74,10.1016/j.actamat.2016.11.016,FCC + B2,M,AC,,,,T,25,545,1050,16.5,,,,,,the values given by the review are a little off from the values provided by the reference itself https://sci-hub.tw/https://doi.org/10.1016/j.actamat.2016.11.017,
J4-74,10.1016/j.actamat.2016.11.016,Al16Cr16Co16Fe16Ni35.5,74,10.1016/j.actamat.2016.11.016,FCC + B2,M,AC,,,,T,25,545,1110,20,,,,,,the values given by the review are a little off from the values provided by the reference itself https://sci-hub.tw/https://doi.org/10.1016/j.actamat.2016.11.018,
J4-76,10.1016/j.msea.2017.04.111,Al4Co19Cr19Cu4Fe19Ni37,76,10.1016/j.msea.2017.04.111,FCC,S,CR + A,,,,T,25,719,1048,30,,,,,,jasper got this right but the review paper got it wrong. They switched which one was two phase,
J4-76,10.1016/j.msea.2017.04.111,Al4Co19Cr19Cu4Fe19Ni37,76,10.1016/j.msea.2017.04.111,FCC + L12,M,CR + A,,,,T,25,460,732,32,,,,,,jasper got this right but the review paper got it wrong. They switched which one was two phase,
J4-86,10.1007/s11837-013-0756-3,Al8Co17Cr17Cu8Fe17Ni33,86,10.1007/s11837-013-0756-3,fcc + L12+ Cr23C6,M,AC,,,,T,25,357,459,9,,,,,,,
J4-86,10.1007/s11837-013-0756-3,Al8Co17Cr17Cu8Fe17Ni33,86,10.1007/s11837-013-0756-3,fcc + L12+ Cr23C6,M,A,,,,T,25,365,365,0.1,,,,,,,
J4-86,10.1007/s11837-013-0756-3,Al8Co17Cr17Cu8Fe17Ni33,86,10.1007/s11837-013-0756-3,FCC + L12,M,A,,,,T,25,215,489,39,,,,,,,
J4-113,10.1016/j.actamat.2015.07.004,Al9Co18Cr18Cu18Fe18Ni18,113,10.1016/j.actamat.2015.07.004,FCC1 + FCC2,M,A + CR,,,,T,25,1284,1344,7.6,,,,,,Inverted order of processing ,
J4-114,10.1016/j.jallcom.2009.10.088,Al9Co18Cr18Cu18Fe18Ni18,114,10.1016/j.jallcom.2009.10.088,FCC,S,CR,,,,T,25,1290,1400,5,,,,,,,
J4-114,10.1016/j.jallcom.2009.10.088,Al9Co18Cr18Cu18Fe18Ni18,114,10.1016/j.jallcom.2009.10.088,FCC1 + FCC2,M,CR + A,,,,T,25,650,790,27,,,,,,,
J4-42,10.1016/j.msea.2011.11.045,AlCoCrCuFeNi,42,10.1016/j.msea.2011.11.045,BCC + FCC1 + FCC2,M,AC,,,,T,25,790,790,0.2,,,,,,,
J4-42,10.1016/j.msea.2011.11.045,AlCoCrCuFeNi,42,10.1016/j.msea.2011.11.045,BCC + FCC1 + FCC2 + $\sigma$,M,HF,,,,T,25,1040,1170,1,,,,,,forging isn't as cast,
J4-72,10.1016/j.msea.2015.08.078,AlCoCrFeNi,72,10.1016/j.msea.2015.08.078,BCC + B2,M,AC,,,,T,700,395,400,1,,,,,,tests were all done at 700C ,
J4-72,10.1016/j.msea.2015.08.078,AlCoCrFeNi,72,10.1016/j.msea.2015.08.078,BCC + B2 + FCC + $\sigma$,M,HIP + A,,,,T,700,295,393,12,,,,,,tests were all done at 700C; changed processing from AC to HIPED + A,
J4-42,10.1016/j.msea.2011.11.045,AlCoCrCuFeNi,42,10.1016/j.msea.2011.11.045,BCC + FCC1 + FCC2,M,AC,,,,T,700,350,360,5,,,,,,tests were all done at 700C ,
J4-42,10.1016/j.msea.2011.11.045,AlCoCrCuFeNi,42,10.1016/j.msea.2011.11.045,BCC + FCC1 + FCC2 + $\sigma$,M,HF,,,,T,700,63,91,63,,,,,,tests were all done at 700C; changed processing from AC to F,
J4-114,10.1016/j.jallcom.2009.10.088,Al9Co18Cr18Cu18Fe18Ni18,114,10.1016/j.jallcom.2009.10.088,FCC,S,CR,,,,T,700,180,185,5,,,,,,tests were all done at 700C ,
J4-114,10.1016/j.jallcom.2009.10.088,Al9Co18Cr18Cu18Fe18Ni18,114,10.1016/j.jallcom.2009.10.088,FCC1 + FCC2,M,CR + A,,,,T,700,160,180,12,,,,,,tests were all done at 700C ,
J5,10.1016/j.actamat.2018.11.049,FeCoNiCrTi0.2,,,FCC,S,CR + A,51,4.8,,T,25,700,1240,36,,,,,,"missed the ductility values, incorrect processing (from AC to CR + A), grain size to 51",
J5,10.1016/j.actamat.2018.11.049,FeCoNiCrTi0.2,,,FCC,S,CR + A,,4.8,,T,-196,860,1580,46,,,,,,"missed the ductility values, incorrect processing (from AC to CR + A), grain size to 51",
J6,10.1016/j.actamat.2018.12.012,Al0.1CoCrFeNi,,,FCC,S,CR,20,,,T,25,1198 $\pm$ 27,,1.5 $\pm$ 0.3,,,,,,,
J6,10.1016/j.actamat.2018.12.012,Al0.1CoCrFeNi,,,FCC,S,CR + A,20,,,T,25,1403 $\pm$ 20,,1.2 $\pm$ 0.1,,,,,,"For future reference, any repeated formulat that includes Annealing (A) as synthesis method is assumed to have varying annealing duration and temperatures as the experimental variable",
J6,10.1016/j.actamat.2018.12.012,Al0.1CoCrFeNi,,,FCC,S,CR + A,20,,,T,25,711 $\pm$ 40,928 $\pm$ 35,30.3 $\pm$ 3.7,,,,,,,
J6,10.1016/j.actamat.2018.12.012,Al0.1CoCrFeNi,,,FCC,S,CR + A,7,,,T,25,356 $\pm$ 13,,42.4 $\pm$ 0.6,,,,,,,
J7,10.1016/j.msea.2018.10.094,CoCrFeMnNi,,,FCC,S,CR + A,0.5,,,T,25,1120,,1.1,,,,,,,
J7,10.1016/j.msea.2018.10.094,CoCrFeMnNi,,,FCC,S,CR + A,,,,T,-196,1692,,10.3,,,,,,,
J8,10.1016/j.jallcom.2018.08.176,CrFeNi2Al,,,FCC + BCC + B2,M,AC,,,,T,25,774,1357,6.4,,,,,,,
J8,10.1016/j.jallcom.2018.08.176,CrFeNi2.1Al0.9,,,FCC + BCC + B2,M,AC,,,,T,25,610,1173,9.1,,,,,,,
J8,10.1016/j.jallcom.2018.08.176,CrFeNi2.2Al0.8,,,FCC + BCC + B2,M,AC,,,,T,25,479,956,12.7,,,,,,,
J8,10.1016/j.jallcom.2018.08.176,CrFeNi2.3Al0.7,,,FCC + BCC + B2,M,AC,,,,T,25,461,835,30,,,,,,,
J8,10.1016/j.jallcom.2018.08.176,CrFeNi2.4Al0.6,,,FCC,S,AC,,,,T,25,441,757,45,,,,,,,
J10,10.1016/j.actamat.2018.12.015,CrCoNi,,,FCC,S,CR + A,1.6,,468,T,25,1100,,23,,,,,,changed grain size,
J10,10.1016/j.actamat.2018.12.015,CrCoNi,,,FCC,S,CR + A,2.3,,326,T,25,597,,53,,,,,,new data,
J10,10.1016/j.actamat.2018.12.015,CrCoNi,,,FCC,S,CR + A,24,,223,T,25,346,,76,,,,,,new data,
J11,10.1038/s41467-019-08460-2,AlCoCrFeNi2.1,,,FCC + B2,M,CR + A,,,,T,25,1263,,21.4,,,,,,recorded ref value not true values; had to go to supplementary,
J11,10.1038/s41467-019-08460-2,AlCoCrFeNi2.1,,,FCC + B2,M,CR + A,,,,T,25,1154,,25,,,,,,new values,
J11,10.1038/s41467-019-08460-2,AlCoCrFeNi2.1,,,FCC + B2,M,CR + A,,,,T,25,1490,,16,,,,,,new values,
J12,10.1016/j.scriptamat.2018.11.042,CrMnFeCoNi,,,FCC,S,AC,,,130.2,C,25,210,,57,,,,,,pulled ductility off plot,
J12,10.1016/j.scriptamat.2018.11.042,CrMnFeCoNi,,,FCC,S,CR,,,394.1,C,25,1150,,6,,,,,,pulled ductility off plot,
J12,10.1016/j.scriptamat.2018.11.042,CrMnFeCoNi,,,FCC,S,CR + A,,,430.7,C,25,1300,,0.7,,,,,,pulled ductility off plot,
J13,10.1016/j.jallcom.2018.10.230,NbTaTiV,,,BCC,S,SPS,24,,427.9,C,25,1108,,28.3,,,,,,Sintered @ 1500 C; pulled ductility off of plot,
J13,10.1016/j.jallcom.2018.10.230,NbTaTiV,,,BCC,S,SPS,30,,444.3,C,25,1308,,27.9,,,,,,Sintered @ 1600 C; pulled ductility off of plot,
J13,10.1016/j.jallcom.2018.10.230,NbTaTiV,,,BCC,S,SPS,38,,510.9,C,25,1373,,29.5,,,4800,,1900,Sintered @ 1700 C; pulled ductility off of plot,
J14,10.1016/j.jmst.2018.09.068,CoCrFeMnNi,,,FCC,S,CR + A,30,,,T,25,300,676,52,,,,,,changed ductility to engineering strain ,
J14,10.1016/j.jmst.2018.09.068,CoCrFeMnNi,,,FCC,S,CR + A,0.65,,,T,25,800,888,39.5,,,,,,changed ductility to engineering strain ,
J15,10.1016/j.jallcom.2018.10.168,FeCoCrNiMn,,,FCC + BCC,M,AC,0.4,,415,C,25,1314,,,20.3,,,,,,
J15,10.1016/j.jallcom.2018.10.168,FeCoCrNiMnAl0.1,,,FCC + BCC,M,AC,,,432,C,25,1631,,,12.6,,,,,,
J15,10.1016/j.jallcom.2018.10.168,FeCoCrNiMnAl0.3,,,FCC + BCC,M,AC,0.2,,511,C,25,1836,,,4.9,,,,,,
J15,10.1016/j.jallcom.2018.10.168,FeCoCrNiMnAl0.5,,,FCC + BCC,M,AC,,,553,C,25,1932,,,3.8,,,,,,
J15,10.1016/j.jallcom.2018.10.168,FeCoCrNiMnAl0.7,,,FCC + BCC,M,AC,0.2,,622,C,25,2230,,,1.69,,,,,,
J15,10.1016/j.jallcom.2018.10.168,FeCoCrNiMnAl1,,,FCC + BCC,M,AC,,,684,C,25,,,,0,,,,,,
J16,10.1007/s40843-018-9373-y,CoCrFeNi,,,FCC,S,A + HF,,,,T,20,446,664,63,,189,,,,,
J16,10.1007/s40843-018-9373-y,CoCrFeNi,,,FCC,S,A + HF,,,,T,-73,488,790,72,,194,,,,,
J16,10.1007/s40843-018-9373-y,CoCrFeNi,,,FCC,S,A + HF,,,,T,-196,590,1070,78,,204,,,,-796 corrected to -196,
J16,10.1007/s40843-018-9373-y,CoCrFeNi,,,FCC,S,A + HF,,,,T,-223,,1152 $\pm$ 8,68.6 $\pm$ 3.3,,,,,,,
J16,10.1007/s40843-018-9373-y,CoCrFeNi,,,FCC,S,A + HF,,,,T,-253,,1240 $\pm$ 40,62 $\pm$ 0.6,,,,,,,
J16,10.1007/s40843-018-9373-y,CoCrFeNi,,,FCC,S,A + HF,,,,T,-268.8,680,1251 $\pm$ 10,61.6 $\pm$ 1.6,,221,,,,,
J17,10.1016/j.matdes.2019.107698,CoCrFeNi,,,FCC,S,AC,,,94.7,,,,,,,,,,,Pulled hardness data off plot,
J17,10.1016/j.matdes.2019.107698,Al0.3CoCrFeNi,,,FCC,S,AC,,,117,,,,,,,,,,,Pulled hardness data off plot,
J17,10.1016/j.matdes.2019.107698,Al0.6CoCrFeNi,,,FCC + BCC + B2,M,AC,,,228,,,,,,,,,,,Pulled hardness data off plot,
J17,10.1016/j.matdes.2019.107698,Al0.9CoCrFeNi,,,FCC + BCC + B2,M,AC,,,511,,,,,,,,,,,Pulled hardness data off plot,
J17,10.1016/j.matdes.2019.107698,Al0.9CoCrFeNiTi0.5,,,BCC + B2 + Im,M,AC,,,623,,,,,,,,,,,Pulled hardness data off plot,
J18,10.1016/j.jmst.2018.10.009,CoCrFeMnNi,,,FCC,S,AC,,,,C,25,216,,,,,,,,,
J18,10.1016/j.jmst.2018.10.009,(CoCrFeMnNi)96Mo4,,,FCC,S,AC,,,,C,25,225,,,,,,,,,
J18,10.1016/j.jmst.2018.10.009,(CoCrFeMnNi)92Mo8,,,FCC + $\sigma$,M,AC,,,,C,25,330,,,,,,,,,
J18,10.1016/j.jmst.2018.10.009,(CoCrFeMnNi)88Mo12,,,FCC + $\sigma$,M,AC,,,,C,25,560,,,,,,,,,
J18,10.1016/j.jmst.2018.10.009,(CoCrFeMnNi)84Mo16,,,FCC + $\sigma$,M,AC,,,,C,25,765,,,,,,,,,
J20,10.1016/j.scriptamat.2018.10.023,Al0.3CoCrFeNi,,,FCC + L12,M,CR,,,,T,25,143,400,65,,,,,,,
J20,10.1016/j.scriptamat.2018.10.023,Al0.3CoCrFeNi,,,FCC + L12,M,CR + A,,,,T,25,471,850,45,,,,,,,
J20,10.1016/j.scriptamat.2018.10.023,Al0.3CoCrFeNi,,,FCC + B2 + $\sigma$,M,CR + A,,,,T,25,841,1050,35,,,,,,,
J20,10.1016/j.scriptamat.2018.10.023,Al0.3CoCrFeNi,,,FCC + BCC + B2 + $\sigma$,M,CR + A,,,,T,25,161,1650,7,,,,,,,
J20,10.1016/j.scriptamat.2018.10.023,Al0.3CoCrFeNi,,,FCC + BCC + B2 + $\sigma$,M,CR + A,,,,T,25,187,1850,5,,,,,,,
J21,10.1016/j.jallcom.2018.11.057,AlCoCrNi,,,BCC + B2,M,AC,,,1183 $\pm$ 20,C,25,1750 $\pm$ 50,,16.7 $\pm$ 0.9,,,,,,hardness units in GPA,
J23,10.1016/j.msea.2019.01.050,FeCoCrNiMn,,,FCC,S,CR + A,7.9,,,T,25,378.7,700.1,54,,,,,,,
J23,10.1016/j.msea.2019.01.050,FeCoCrNiMnC0.5,,,FCC,M,CR + A,4.7,,,T,25,520.9,791.4,40.3,,,,,36380,Note: these alloys were intentionally designed to contain carbon,
J23,10.1016/j.msea.2019.01.050,FeCoCrNiMnC1,,,FCC,M,CR + A,3.5,,,T,25,643.8,887.6,31.9,,,,,30300,Note: these alloys were intentionally designed to contain carbon,
J24,10.1016/j.ijplas.2018.10.005,Cr20Fe6Co34Ni34Mo6,,,FCC,S,CR,,,,T,25,,,8,,,,,,,
J24,10.1016/j.ijplas.2018.10.005,Cr20Fe6Co34Ni34Mo6,,,FCC,S,CR + A,0.7,,,T,25,,,14,,,,,,extracted data from plots,
J24,10.1016/j.ijplas.2018.10.005,Cr20Fe6Co34Ni34Mo6,,,FCC,S,CR + A,0.8,,,T,25,1100,1300,32,,,,,,extracted data from plots,
J24,10.1016/j.ijplas.2018.10.005,Cr20Fe6Co34Ni34Mo6,,,FCC,S,CR + A,1.2,,,T,25,950,,36,,,,,,extracted data from plots,
J24,10.1016/j.ijplas.2018.10.005,Cr20Fe6Co34Ni34Mo6,,,FCC,S,CR + A,3.2,,,T,25,649,,42,,,,,,extracted data from plots,
J24,10.1016/j.ijplas.2018.10.005,Cr20Fe6Co34Ni34Mo6,,,FCC,S,CR + A,18.2,,,T,25,439,,63,,,,,,extracted data from plots,
J24,10.1016/j.ijplas.2018.10.005,Cr20Fe6Co34Ni34Mo6,,,FCC,S,CR + A,94.1,,,T,25,309,,82,,,,,,extracted data from plots,
J25,10.1016/j.jallcom.2018.08.115,Co0.2Cr0.2Fe0.2Mn0.2Ni0.2,,,FCC,S,CR + A,,,,T,25,386.2,666.3,57.5,,,,,,added total elongation ,
J26,10.1016/j.matchemphys.2018.09.033,FeCrCuMnNi,,,FCC1 + FCC2 + BCC ,M,AC,,,,T,25,628,950,14.5,,,,,,not sure where original data was from... extracted from plot,
J26,10.1016/j.matchemphys.2018.09.033,FeCrCuMnNi,,,FCC1 + FCC2 + BCC ,M,A,,,,T,25,545,690,5,,,,,,not sure where original data was from... extracted from plot,
J26,10.1016/j.matchemphys.2018.09.033,FeCrCuMnNi,,,FCC1 + FCC2 + BCC ,M,A,,,,T,25,534,682,5.2,,,,,,not sure where original data was from... extracted from plot,
J26,10.1016/j.matchemphys.2018.09.033,FeCrCuMnNi,,,FCC1 + FCC2 + BCC ,M,A,,,,T,25,525,680,4.3,,,,,,not sure where original data was from... extracted from plot,
J26,10.1016/j.matchemphys.2018.09.033,FeCrCuMnNi,,,FCC1 + FCC2 + BCC ,M,A,,,,T,25,517,677,4.6,,,,,,not sure where original data was from... extracted from plot,
J26,10.1016/j.matchemphys.2018.09.033,FeCrCuMnNi,,,FCC1 + FCC2 + BCC ,M,A,,,,T,25,502,671,4.9,,,,,,not sure where original data was from... extracted from plot,
J27,10.1016/j.jallcom.2018.11.318,NbMoTaWVCr,,,BCC + Laves + oxide,M,SPS,0.54,,1072,C,25,,,,,,7946,,,Sintered @ 1400 C,
J27,10.1016/j.jallcom.2018.11.318,NbMoTaWVCr,,,BCC + Laves + oxide,M,SPS,1.24,,1010,C,25,3416,,5.3,,,7946,,,Sintered @ 1500 C,
J27,10.1016/j.jallcom.2018.11.318,NbMoTaWVCr,,,BCC + Laves + oxide,M,SPS,5.01,,991.3,C,25,3410,,2,,,7946,,,Sintered @ 1600 C,
J27,10.1016/j.jallcom.2018.11.318,NbMoTaWVCr,,,BCC + Laves + oxide,M,SPS,10.8,,988.3,C,25,3338,,1.9,,,7946,,,Sintered @ 1700 C,
J27,10.1016/j.jallcom.2018.11.318,NbMoTaWVCr,,,,,SPS,,,1010,C,25,3416,,5.3,,,,,,,
J27-28,10.1016/j.calphad.2015.09.007,NbMoTaWVCr,28,10.1016/j.calphad.2015.09.007,,,AC,,,704.6,C,25,,,,,,,,,,
J28,10.1016/j.vacuum.2018.12.009,CoCrCuFeNi,,,FCC + B2,M,AC,,,45.2,,,,,,,,,,,note this is rockwell hardness ,
J28,10.1016/j.vacuum.2018.12.009,Al0.5CoCrCuFeNi,,,FCC,S,AC,,,48.8,,,,,,,,,,,note this is rockwell hardness ,
J28,10.1016/j.vacuum.2018.12.009,AlCoCrCuFeNi,,,FCC + BCC,M,AC,,,73.8,,,,,,,,,,,note this is rockwell hardness ,
J28,10.1016/j.vacuum.2018.12.009,Al1.5CoCrCuFeNi,,,FCC + BCC,M,AC,,,75.1,,,,,,,,,,,note this is rockwell hardness ,
J28,10.1016/j.vacuum.2018.12.009,Al2CoCrCuFeNi,,,FCC + BCC,M,AC,,,77.5,,,,,,,,,,,note this is rockwell hardness ,
J29,10.1002/adma.201807142,VCoNi,,,,,CR+A,2.0 $\pm$ 1.5,,,T,25,991 $\pm$ 8,1359 $\pm$ 2.1,38 $\pm$ 0.5,,,,,,changed processing from A to CR + A,
J29,10.1002/adma.201807142,VCoNi,,,,S,CR+A,5.6 $\pm$ 3.1,,,T,25,767 $\pm$ 5,1224 $\pm$ 0.5,46 $\pm$ 0.1,,,,,,changed processing from A to CR + A,
J29,10.1002/adma.201807142,VCoNi,,,,,CR+A,18.7 $\pm$ 13.9,,,T,25,602 $\pm$ 7,1123 $\pm$ 8.0,51 $\pm$ 1.6,,,,,,changed processing from A to CR + A,
J29,10.1002/adma.201807142,VCoNi,,,,,CR+A,27.8 $\pm$ 19.5,,,T,25,517 $\pm$ 8,1049 $\pm$ 0.5,55 $\pm$ 1.5,,,,,,changed processing from A to CR + A,
J29,10.1002/adma.201807142,VCoNi,,,,,CR+A,122.2 $\pm$ 76.4,,,T,25,461 $\pm$ 6,886 $\pm$ 4.0,58 $\pm$ 0.1,,,,,,changed processing from A to CR + A,
J30,10.1016/j.actamat.2018.12.010,Al0.3CoCrFeNi,,,FCC + B2 + $\sigma$,M,CR+A,,,,T,25,840 $\pm$ 20,1039 $\pm$ 21,32 $\pm$ 4,,,,,,,
J30,10.1016/j.actamat.2018.12.010,Al0.3CoCrFeNi,,,FCC,M,CR+A,,,,T,25,159 $\pm$ 22,410 $\pm$ 42,65 $\pm$ 3,,,,,,,
J31,10.1016/j.scriptamat.2018.09.008,(Al18.6Fe34.2Co23.6Ni23.6)97.3C2.7,,,B2 + L12,M,AC,,,,C,25,1202,,32.6,,,,,11067,Note: this alloy was intentionally designed to contain carbon,
J32,10.1016/j.matchar.2018.07.015,HfNbTaTiZr,,,BCC,S,CR+A,,,,,,,,,,,,,,Skipped,
J33,10.1080/21663831.2018.1553803,Co25Cr25(FeNi)50,,,FCC,S,CR+A,14.9,,,T,25,214,612,77.3,,,,,,changed processing from A to CR + A; added grain size,
J33,10.1080/21663831.2018.1553803,Co35Cr25(FeNi)40,,,FCC,S,CR+A,11.6,,,T,25,241,721,96.2,,,,,,changed processing from A to CR + A; added grain size,
J33,10.1080/21663831.2018.1553803,Co45Cr25(FeNi)30,,,FCC,S,CR+A,10.5,,,T,25,299,841,76.1,,,,,,changed processing from A to CR + A; added grain size,
J33,10.1080/21663831.2018.1553803,Co55Cr25(FeNi)20,,,FCC  + HCP,M,CR+A,5.6,,,T,25,392,746,20.3,,,,,,changed processing from A to CR + A; added grain size,
J33,10.1080/21663831.2018.1553803,Co65Cr25(FeNi)10,,,FCC  + HCP,M,CR+A,6.2,,,T,25,482,857,13.3,,,,,,changed processing from A to CR + A; added grain size,
J34,10.1016/j.intermet.2019.04.003,NbHfZrTi,,,BCC,S,CR+A,,,,,,,,,,69.7,,,,Youngs Modulus data,
J34-58,10.1016/j.intermet.2014.11.005,NiCoCrFeMn,58,10.1016/j.intermet.2014.11.005,,,,,,,,,,,,,202,,,,,
J34-59,10.1557/adv.2017.76,NiCoCrFeMn,59,10.1557/adv.2017.76,,,,,,,,,,,,,202.2,,,,,
J34-60,10.1016/j.msea.2016.05.082,NiCoFeCr,60,10.1016/j.msea.2016.05.082,,,,,,,,,,,,,204,,,,,
J34-61,10.1016/j.msea.2017.04.003,NiCoFe,61,10.1016/j.msea.2017.04.003,,,,,,,,,,,,,174,,,,,
J34-62,10.1016/j.msea.2017.06.086,NiCoCr,62,10.1016/j.msea.2017.06.086,,,,,,,,,,,,,222,,,,,
J34-63, 10.1038/ncomms10602,NiCoCr,63, 10.1038/ncomms10602,,,,,,,,,,,,,229,,,,,
J34-61,10.1016/j.msea.2017.04.003,NiCoCr,61,10.1016/j.msea.2017.04.003,,,,,,,,,,,,,234,,,,,
J35,10.1016/j.actamat.2019.03.010,Al34Co17Cr34Cu0Fe5Ni10,,,,,,,,699 $\pm$ 37,,,,,,,,,,,"No mechnical data, data mostly on HV",not a review article
J35,10.1016/j.actamat.2019.03.010,Al47Co14Cr15Cu5Fe13Ni6,,,,,,,,728 $\pm$ 42,,,,,,,,,,,,not a review article
J35,10.1016/j.actamat.2019.03.010,Al38Co11Cr6Cu9Fe31Ni5,,,,,,,,604 $\pm$ 31,,,,,,,,,,,,not a review article
J35,10.1016/j.actamat.2019.03.010,Al36Co10Cr31Cu6Fe9Ni8,,,,,,,,790 $\pm$ 41,,,,,,,,,,,,not a review article
J35,10.1016/j.actamat.2019.03.010,Al43Co17Cr15Cu0Fe14Ni11,,,,,,,,806 $\pm$ 31,,,,,,,,,,,,not a review article
J35,10.1016/j.actamat.2019.03.010,Al47Co12Cr12Cu5Fe13Ni11,,,,,,,,811 $\pm$ 31,,,,,,,,,,,,not a review article
J35,10.1016/j.actamat.2019.03.010,Al43Co19Cr19Cu0Fe11Ni8,,,,,,,,855 $\pm$ 26,,,,,,,,,,,,not a review article
J35,10.1016/j.actamat.2019.03.010,Al39Co10Cr31Cu5Fe8Ni7,,,,,,,,802 $\pm$ 18,,,,,,,,,,,,not a review article
J35,10.1016/j.actamat.2019.03.010,Al47Co13Cr13Cu5Fe12Ni10,,,,,,,,799 $\pm$ 42,,,,,,,,,,,,not a review article
J35,10.1016/j.actamat.2019.03.010,Al43Co20Cr22Cu0Fe8Ni7,,,,,,,,857 $\pm$ 43,,,,,,,,,,,,not a review article
J35,10.1016/j.actamat.2019.03.010,Al47Co14Cr19Cu5Fe10Ni5,,,,,,,,855 $\pm$ 15,,,,,,,,,,,,not a review article
J35,10.1016/j.actamat.2019.03.010,Al43Co20Cr19Cu0Fe9Ni9,,,,,,,,816 $\pm$ 37,,,,,,,,,,,,not a review article
J35,10.1016/j.actamat.2019.03.010,Al46Co14Cr23Cu5Fe7Ni5,,,,,,,,811 $\pm$ 34,,,,,,,,,,,,not a review article
J35,10.1016/j.actamat.2019.03.010,Al44Co14Cr22Cu5Fe9Ni6,,,,,,,,790 $\pm$ 48,,,,,,,,,,,,not a review article
J35,10.1016/j.actamat.2019.03.010,Al43Co19Cr24Cu0Fe8Ni6,,,,,,,,855 $\pm$ 30,,,,,,,,,,,,not a review article
J35,10.1016/j.actamat.2019.03.010,Al43Co18Cr24Cu0Fe10Ni5,,,,,,,,856 $\pm$ 53,,,,,,,,,,,,not a review article
J35,10.1016/j.actamat.2019.03.010,Al47Co14Cr20Cu5Fe9Ni5,,,,,,,,859 $\pm$ 26,,,,,,,,,,,,not a review article
J35,10.1016/j.actamat.2019.03.010,Al43Co24Cr22Cu0Fe5Ni6,,,,,,,,875 $\pm$ 58,,,,,,,,,,,,not a review article
J35,10.1016/j.actamat.2019.03.010,Al43Co25Cr22Cu0Fe5Ni5,,,,,,,,865 $\pm$ 39,,,,,,,,,,,,not a review article
J35,10.1016/j.actamat.2019.03.010,Al43Co24Cr23Cu0Fe5Ni5,,,,,,,,868 $\pm$ 45,,,,,,,,,,,,not a review article
J35,10.1016/j.actamat.2019.03.010,Al43Co23Cr21Cu0Fe8Ni5,,,,,,,,863 $\pm$ 34,,,,,,,,,,,,not a review article
J35,10.1016/j.actamat.2019.03.010,Al47Co12Cr20Cu5Fe11Ni5,,,,,,,,843 $\pm$ 52,,,,,,,,,,,,not a review article
J35,10.1016/j.actamat.2019.03.010,Al43Co15Cr17Cu5Fe14Ni6,,,,,,,,794 $\pm$ 35,,,,,,,,,,,,not a review article
J35,10.1016/j.actamat.2019.03.010,Al42Co10Cr30Cu5Fe7Ni6,,,,,,,,783 $\pm$ 27,,,,,,,,,,,,not a review article
J35,10.1016/j.actamat.2019.03.010,Al47Co11Cr22Cu5Fe10Ni5,,,,,,,,797 $\pm$ 17,,,,,,,,,,,,not a review article
J35,10.1016/j.actamat.2019.03.010,Al47Co13Cr20Cu5Fe10Ni5,,,,,,,,805 $\pm$ 24,,,,,,,,,,,,not a review article
J35,10.1016/j.actamat.2019.03.010,Al29Co22Cr34Cu0Fe5Ni10,,,,,,,,699 $\pm$ 10,,,,,,,,,,,,not a review article
J35,10.1016/j.actamat.2019.03.010,Al47Co7Cr16Cu9Fe16Ni5,,,,,,,,749 $\pm$ 26,,,,,,,,,,,,not a review article
J35,10.1016/j.actamat.2019.03.010,Al43Co14Cr21Cu5Fe12Ni5,,,,,,,,828 $\pm$ 42,,,,,,,,,,,,not a review article
J35,10.1016/j.actamat.2019.03.010,Al47Co18Cr15Cu5Fe10Ni5,,,,,,,,849 $\pm$ 37,,,,,,,,,,,,not a review article
J35,10.1016/j.actamat.2019.03.010,Al47Co20Cr18Cu5Fe5Ni5,,,BCC+B2,M,,,,883 $\pm$ 22,,,,,,,,,,,,not a review article
J35,10.1016/j.actamat.2019.03.010,Al43Co18Cr20Cu0Fe12Ni7,,,,,,,,864 $\pm$ 23,,,,,,,,,,,,not a review article
J35,10.1016/j.actamat.2019.03.010,Al47Co17Cr16Cu5Fe10Ni5,,,,,,,,841 $\pm$ 37,,,,,,,,,,,,not a review article
J35,10.1016/j.actamat.2019.03.010,Al43Co24Cr23Cu0Fe5Ni5,,,,,,,,868 $\pm$ 45,,,,,,,,,,,,not a review article
J35,10.1016/j.actamat.2019.03.010,Al43Co25Cr22Cu0Fe5Ni5,,,,,,,,865 $\pm$ 39,,,,,,,,,,,,not a review article
J35,10.1016/j.actamat.2019.03.010,Al46Co21Cr18Cu5Fe5Ni5,,,,,,,,840 $\pm$ 67,,,,,,,,,,,,not a review article
J35,10.1016/j.actamat.2019.03.010,Al43Co22Cr22Cu0Fe8Ni5,,,,,,,,882 $\pm$ 22,,,,,,,,,,,,not a review article
J35,10.1016/j.actamat.2019.03.010,Al43Co22Cr23Cu0Fe7Ni5,,,BCC+B2,M,,,,883 $\pm$ 47,,,,,,,,,,,,not a review article
J35,10.1016/j.actamat.2019.03.010,Al43Co20Cr21Cu0Fe9Ni7,,,,,,,,828 $\pm$ 48,,,,,,,,,,,,not a review article
J35,10.1016/j.actamat.2019.03.010,Al43Co22Cr25Cu0Fe5Ni5,,,,,,,,848 $\pm$ 27,,,,,,,,,,,,not a review article
J35,10.1016/j.actamat.2019.03.010,Al47Co19Cr19Cu5Fe5Ni5,,,,,,,,878 $\pm$ 25,,,,,,,,,,,,not a review article
J35,10.1016/j.actamat.2019.03.010,Al43Co29Cr18Cu0Fe5Ni5,,,,,,,,782 $\pm$ 49,,,,,,,,,,,,not a review article
J36,10.1016/j.msea.2019.01.112,Co20.6Cr19.9Fe19.5Ni20.9Mn19.1,,,BCC,S,CR+A,,,,T,25,1290,1415,1.1,,,,,,,not a review article
J36,10.1016/j.msea.2019.01.112,Co20.6Cr19.9Fe19.5Ni20.9Mn19.1,,,FCC + BCC + $\sigma$,M,CR+A,1.3 $\pm$ 0.7,,,T,25,1135,1260,1.8,,,,,,fixed grain size; wrong unit,
J36,10.1016/j.msea.2019.01.112,Co20.6Cr19.9Fe19.5Ni20.9Mn19.1,,,FCC + BCC + $\sigma$,M,CR+A,2 $\pm$ 0.9,,,T,25,585,815,31.7,,,,,,fixed grain size; wrong unit,
J36,10.1016/j.msea.2019.01.112,Co20.6Cr19.9Fe19.5Ni20.9Mn19.1,,,FCC + $\sigma$,M,CR+A,3.6 $\pm$ 1.7,,,T,25,425,735,40.2,,,,,,fixed grain size; wrong unit,
J36,10.1016/j.msea.2019.01.112,Co20.6Cr19.9Fe19.5Ni20.9Mn19.1,,,FCC,S,CR+A,17.1 $\pm$ 8.2,,,T,25,270,630,46.2,,,,,,fixed grain size; wrong unit,
J36,10.1016/j.msea.2019.01.112,Co20.6Cr19.9Fe19.5Ni20.9Mn19.1,,,,,CR,0.07,,,T,25,1120,1175,1.5,,,,,,added grain size from text,
J38,10.1016/j.actamat.2019.06.032,Al0.4Hf0.6NbTaTiZr,,,BCC,S,HIP+A,,9.08,,C,23,1841,,,,,,,,noted grain size greater than 100um,not a review article
J38,10.1016/j.actamat.2019.06.032,AlCrMoTi,,,BCC,S,A,,5.98,,C,23,1100,,,,,,,,noted grain size greater than 100um,not a review article
J38,10.1016/j.actamat.2019.06.032,AlMoNbTi,,,BCC,S,A,,6.46,,C,23,1100,,,,,,,,noted grain size greater than 100um,not a review article
J38,10.1016/j.actamat.2019.06.032,HfMo0.5NbTiV0.5,,,BCC,S,AC,,8.96,,C,23,1260,,,,,,,,noted grain size greater than 100um,not a review article
J38,10.1016/j.actamat.2019.06.032,HfMoNbTaTiZr,,,BCC,S,AC,,9.93,,C,23,1512,,,,,,,,noted grain size greater than 100um,not a review article
J38,10.1016/j.actamat.2019.06.032,HfMoNbTiZr,,,BCC,S,AC,,8.68,,C,23,1575,,,,,,,,noted grain size greater than 100um,not a review article
J38,10.1016/j.actamat.2019.06.032,HfMoTaTiZr,,,BCC,S,AC,,10.18,,C,23,1600,,,,,,,,noted grain size greater than 100um,not a review article
J38,10.1016/j.actamat.2019.06.032,HfNbTaTiZr,,,BCC,S,HIP+A,,9.89,,C,23,929,,,,,,,,noted grain size greater than 100um,not a review article
J38,10.1016/j.actamat.2019.06.032,MoNbTaTiVW,,,BCC,S,AC,,10.91,,C,23,1515,,,,,,,,noted grain size greater than 100um,not a review article
J38,10.1016/j.actamat.2019.06.032,MoNbTaTiW,,,BCC,S,AC,,11.72,,C,23,1343,,,,,,,,noted grain size greater than 100um,not a review article
J38,10.1016/j.actamat.2019.06.032,MoNbTaVW,,,BCC,S,HIP+A,,12.29,,C,23,1246,,,,,,,,noted grain size greater than 100um,not a review article
J38,10.1016/j.actamat.2019.06.032,MoNbTaW,,,BCC,S,HIP+A,,13.6,,C,23,996,,,,,,,,noted grain size greater than 100um,not a review article
[...]
J90-36,10.4028/www.scientific.net/MSF.846.13,Al0.5FeCrNiMnCoTa0.2,36,10.4028/www.scientific.net/MSF.846.13,FCC + BCC + laves,M,,,,385,,,,,,,,,,,,
J90-36,10.4028/www.scientific.net/MSF.846.13,Al0.5FeCrNiMnCoTa0.4,36,10.4028/www.scientific.net/MSF.846.13,FCC + BCC + laves,M,,,,486,,,,,,,,,,,,
J90-36,10.4028/www.scientific.net/MSF.846.13,Al0.55FeCrNiMnCoTa0.6,36,10.4028/www.scientific.net/MSF.846.13,FCC + BCC + laves + IM,M,,,,570,,,,,,,,,,,,
J90-36,10.4028/www.scientific.net/MSF.846.13,FeCrNiMnCoTa0,36,10.4028/www.scientific.net/MSF.846.13,FCC + BCC,M,,,,,,,,,,,,,,,,
J90-36,10.4028/www.scientific.net/MSF.846.13,FeCrNiMnCoTa0.2,36,10.4028/www.scientific.net/MSF.846.13,FCC + BCC,M,,,,200,,,,,,,,,,,,
J90-36,10.4028/www.scientific.net/MSF.846.13,FeCrNiMnCoTa0.4,36,10.4028/www.scientific.net/MSF.846.13,FCC + BCC,M,,,,290,,,,,,,,,,,,
J90-36,10.4028/www.scientific.net/MSF.846.13,FeCrNiMnCoTa0.6,36,10.4028/www.scientific.net/MSF.846.13,FCC + BCC,M,,,,345,,,,,,,,,,,,
J90-39,10.1016/j.jallcom.2010.02.032,Al0.3CoCrFeNi,39,10.1016/j.jallcom.2010.02.032,FCC,S,,,,160,,,,,,,,,,,,
J90-39,10.1016/j.jallcom.2010.02.032,Al0.3CoCrFeNiMo0.1,39,10.1016/j.jallcom.2010.02.032,FCC,S,,,,200,,,,,,,,,,,,
J90,10.1016/j.msea.2019.05.056,Al5Cr12Fe35Mn28Ni20,,This Paper,FCC,S,AC,,,,T,25,280,556,48,48.2,,,,,actually made by the paper,
J90,10.1016/j.msea.2019.05.056,Al10Cr12Fe35Mn23Ni20,,This Paper,FCC,S,CR,,,,T,25,320,625,42.2,42.45,,,,,,
J90,10.1016/j.msea.2019.05.056,Al5Cr12Fe35Mn28Ni20,,This Paper,FCC,S,AC,,,,T,25,1253,1392,6.78,8.2,,,,,,
J90,10.1016/j.msea.2019.05.056,Al10Cr12Fe35Mn23Ni20,,This Paper,FCC,S,CR,,,,T,25,1400,1500,5.83,7.85,,,,,,
J91,10.1016/j.msea.2019.04.096,CoCuFeMnNi,,,FCC,S,AC,,,,,800,,,,,,,,,,
J91,10.1016/j.msea.2019.04.096,CoCuFeMnNi,,,FCC,S,AC,,,,,900,,,,,,,,,,
J91,10.1016/j.msea.2019.04.096,CoCuFeMnNi,,,FCC,S,AC,,,,,100,,,,,,,,,,
J92,10.1016/j.msea.2019.05.078,CoCrFeNiMo0.15,,,FCC,S,AC,,,,T,25,489 $\pm$ 2,895 $\pm$ 10,,53.6 $\pm$ 0.7,,,,,,
J92,10.1016/j.msea.2019.05.078,CoCrFeNiMo0.15,,,,,CR+A,,,,T,25,873 $\pm$ 27,,,23.4 $\pm$ 1.1,,,,,CR,
J92,10.1016/j.msea.2019.05.078,CoCrFeNiMo0.15,,,,,CR+A,,,,T,25,952 $\pm$ 35,1122 $\pm$ 17,,14.2 $\pm$ 0.5,,,,,,
J92,10.1016/j.msea.2019.05.078,CoCrFeNiMo0.15,,,FCC,S,CR+A,,,,T,25,1136 $\pm$ 3,1245 $\pm$ 0.8,,8.7 $\pm$ 0.7,,,,,,
J92,10.1016/j.msea.2019.05.078,CoCrFeNiMo0.15,,,FCC,S,CR+A,,,,T,25,1301 $\pm$ 28,1493 $\pm$ 30,,7.2 $\pm$ 0.5,,,,,,
J92,10.1016/j.msea.2019.05.078,CoCrFeNiMo0.15,,,,,CR+A,,,,T,25,1311 $\pm$ 14,1421 $\pm$ 27,,5.9 $\pm$ 0.3,,,,,,
J92,10.1016/j.msea.2019.05.078,CoCrFeNiMo0.15,,,,,CR+A,,,,T,25,1273 $\pm$ 16,1458 $\pm$ 28,,5.5 $\pm$ 0.4,,,,,,
J93,10.1016/j.msea.2019.05.003,CuNi1.01Si0.28Co0.14Cr0.45,,,,M,CR+A,,,142.5,T,25,777,810,3.4,,,,,,added multiphase,
J93,10.1016/j.msea.2019.05.003,CuNi1.01Si0.28Co0.14Cr0.45,,,,M,CR+A,,,147.4,,,,,,,,,,,added multiphase,
J93,10.1016/j.msea.2019.05.003,CuNi1.01Si0.28Co0.14Cr0.45,,,,M,CR+A,,,155.2,,,,,,,,,,,added multiphase,
J95,10.1038/s41467-019-10533-1,Co33W07Al33Nb24Cr03,,,,,AC,,,1084,,25,,,,,,,,,,
J95,10.1038/s41467-019-10533-1,Ti18Ni24Ta12Cr22Co24,,,,,AC,,,1011,,25,,,,,,,,,,
J95,10.1038/s41467-019-10533-1,Co6W9Al36Mo38Ni11,,,,,AC,,,725,,25,,,,,,,,,,
J95,10.1038/s41467-019-10533-1,Ni47Co02Ta12Ti9Nb30,,,,,AC,,,815,,25,,,,,,,,,,
J95,10.1038/s41467-019-10533-1,Ti44Ni02Nb21Cr21Co12,,,,,AC,,,422,,25,,,,,,,,,,
J95,10.1038/s41467-019-10533-1,Ti32Nb9Ta01Cr19Co39,,,,,AC,,,856,,25,,,,,,,,,,
J95,10.1038/s41467-019-10533-1,Ti39W04Nb31Ta04Co22,,,,,AC,,,277,,25,,,,,,,,,,
J98,10.1016/j.jmst.2018.12.014,AlCoCuFeNi0.5,,,FCC + BCC + B2,M,AC,,,430.9,C,25,929,,13.7,,,,,,,
J98,10.1016/j.jmst.2018.12.014,AlCoCuFeNi0.8,,,FCC + BCC + B2,M,AC,,,420,C,25,1021,,12.3,,,,,,,
J98,10.1016/j.jmst.2018.12.014,AlCoCuFeNi,,,FCC + BCC + B2,M,AC,,,391.4,C,25,994,,24.5,,,,,,,
J98,10.1016/j.jmst.2018.12.014,AlCoCuFeNi1.5,,,FCC + BCC + B2,M,AC,,,323.8,C,25,680,,35.9,,,,,,,
J98,10.1016/j.jmst.2018.12.014,AlCoCuFeNi2,,,FCC + BCC + B2,M,AC,,,299.2,C,25,544,,,,,,,,,
J98,10.1016/j.jmst.2018.12.014,AlCoCuFeNi3,,,FCC,S,AC,,,279.6,C,25,268,,,,,,,,,
J100,10.1016/j.msea.2019.04.104,Al0.5CrFeMnNi,,,BCC + B2,M,AC,,,353,C,25,1091,,50,,,,,,,
J100,10.1016/j.msea.2019.04.104,Al0.6CrFeMnNi,,,BCC + B2,M,AC,,,361,C,25,1130,,53,,,,,,,
J100,10.1016/j.msea.2019.04.104,Al0.7CrFeMnNi,,,BCC + B2,M,AC,,,375,C,25,1170,,55,,,,,,,
J100,10.1016/j.msea.2019.04.104,Al0.8CrFeMnNi,,,BCC + B2,M,AC,,,386,C,25,1200,,55,,,,,,,
J102,10.1016/j.jmmm.2019.01.096,FeCoNiCr0.2Si0.2,,,FCC,S,AC,,,130.1,T,25,225,732,61,,,,,,,
J102,10.1016/j.jmmm.2019.01.096,FeCoNiCr0.2Si0.2,,,FCC,S,HR,,,318.2,T,25,705,1070,10,,,,,,changed processing to hot rolling,
J102,10.1016/j.jmmm.2019.01.096,FeCoNiCr0.2Si0.2,,,FCC,S,HR + A,,,153.8,T,25,320,920,60,,,,,,changed processing to hot rolling,
J105,10.1038/s41598-019-43329-w,Al65Cu5Mg5Si15Zn5Fe5,,,FCC,S,AC,,3.08,,C,25,422 $\pm$ 75,,1,,88.7 $\pm$ 0.4,,,,,
J105,10.1038/s41598-019-43329-w,Al65Cu5Mg5Si15Zn5Ni5,,,FCC,S,AC,,3.15,,C,25,534 $\pm$ 4,,1,,107.8 $\pm$ 17,,,,,
J105,10.1038/s41598-019-43329-w,Al65Cu5Mg5Si15Zn5Cr5,,,FCC,S,AC,,3.06,,C,25,490 $\pm$ 18,,6,,78.4 $\pm$ 3,,,,,
J105,10.1038/s41598-019-43329-w,Al65Cu5Mg5Si15Zn5Mn5,,,FCC,S,AC,,2.98,,C,25,622 $\pm$ 15,,2,,114.1 $\pm$ 2,,,,,
J105,10.1038/s41598-019-43329-w,Al65Cu5Mg5Si15Zn5Zr5,,,FCC + Laves,M,AC,,3.06,,C,25,565 $\pm$ 79,,4,,105.1 $\pm$ 27,,,,,
J106,10.3390/e21050448,CoCrFeNiMo0.2,,,FCC,S,AC,,,,T,25,400,780,53,,,,,,"For some reason, missing Yield Strength data",
J106,10.3390/e21050448,CoCrFeNiMo0.2,,,FCC,S,A,,,,T,25,,838,43,,,,,,,
J106,10.3390/e21050448,CoCrFeNiMo0.2,,,FCC,S,A,,,,T,25,,899,31,,,,,,,
J106,10.3390/e21050448,CoCrFeNiMo0.2,,,FCC,S,A,,,,T,25,,902,29,,,,,,,
J106,10.3390/e21050448,CoCrFeNiMo0.2,,,FCC,S,A,,,,T,25,,811,52,,,,,,,
J106,10.3390/e21050448,CoCrFeNiMo0.2,,,FCC,S,A,,,,T,25,,790,49,,,,,,,
J106,10.3390/e21050448,CoCrFeNiMo0.2,,,FCC,S,A,,,,T,25,,799,47,,,,,,,
J106,10.3390/e21050448,CoCrFeNiMo0.2,,,FCC,S,A,,,,T,25,,802,37,,,,,,,
J106,10.3390/e21050448,CoCrFeNiMo0.2,,,FCC,S,A,,,,T,25,,823,36,,,,,,,
J106,10.3390/e21050448,CoCrFeNiMo0.2,,,FCC,S,A,,,,T,25,,849,34,,,,,,,
J106,10.3390/e21050448,CoCrFeNiMo0.2,,,FCC,S,A,,,,T,25,,895,32,,,,,,,
J107,10.3390/ma12071136,Al19.9Li30Mg35Si10Ca5Y0.1,,,,M,AC,,1.7,,C,25,556,,3,,,,,,changed to multiphase,
J107,10.3390/ma12071136,Al15Li35Mg35Ca10Si5,,,,M,AC,,1.57,,C,25,418,,13,,,,,,changed to multiphase,
J107,10.3390/ma12071136,Al15Li38Mg48Ca1 Si1,,,,M,AC,,1.52,,C,25,360,,9,,,,,,corrected the name; changed to multiphase,
J107,10.3390/ma12071136,Al15Li38Mg45Ca0.5Si1.5,,,,M,AC,,1.5,,C,25,342,,44,,,,,,changed to multiphase,
J107,10.3390/ma12071136,Al15Li39Mg45Ca0.5Si0.5,,,,M,AC,,1.46,,C,25,300,,63,,,,,,changed to multiphase,
J109,10.3390/e21030288,CoCrFeNiPd,,,FCC,S,AC,,,295,,,,,,,,,,,,
J109,10.3390/e21030288,CoCrFeNiPdMn0.2,,,FCC + IM,M,AC,,,470,C,25,650,,50,,,,,,changed to multiphase,
J109,10.3390/e21030288,CoCrFeNiPdMn0.4,,,FCC + IM,M,AC,,,380,C,25,650,,46,,,,,,changed to multiphase,
J109,10.3390/e21030288,CoCrFeNiPdMn0.6,,,FCC + IM,M,AC,,,180,C,25,650,,42,,,,,,changed to multiphase,
J109,10.3390/e21030288,CoCrFeNiPdMn0.8,,,FCC + IM,M,AC,,,160,C,25,650,,35,,,,,,changed to multiphase,
J110,10.1016/j.scriptamat.2018.12.021,Al0.3CoCrFeMnNi,,,,,SPS,,,,,,,,,,,,,,Skipped,
J111,10.1557/jmr.2019.40,CrFeNiTi0.2,,,BCC + FCC,M,AC,,,362.2,C,25,2297.94,,5.8,,,,,,,
J111,10.1557/jmr.2019.40,CrFeNiTi0.3,,,BCC + FCC,M,AC,,,510.3,C,25,2364.63,,,,,,,,corrected elongations,
J111,10.1557/jmr.2019.40,CrFeNiTi0.4,,,BCC,S,AC,,,600.3,C,25,2475.41,,6.5,,,,,,corrected elongations,
J111,10.1557/jmr.2019.40,CrFeNiTi0.5,,,BCC,S,AC,,,709.6,C,25,2380.79,,,,,,,,corrected elongations,
J111,10.1557/jmr.2019.40,CrFeNiTi0.6,,,BCC,S,AC,,,718.2,C,25,1923.15,,,,,,,,corrected elongations,
J112,10.1557/jmr.2019.18,AlCuCrFeMn,,,sigma + FeMn,M,SPS,,,633,C,25,1010,,,,,,,,fixed strength,
J112,10.1557/jmr.2019.18,AlCuCrFeMnW0.05,,,BCC + sigma + FeMn,M,SPS,,,680,C,25,1120,,,,,,,,fixed strength,
J112,10.1557/jmr.2019.18,AlCuCrFeMnW0.1,,,BCC + sigma + FeMn,M,SPS,,,705,C,25,1250,,,,,,,,fixed strength,
J112,10.1557/jmr.2019.18,AlCuCrFeMnW0.5,,,BCC + sigma + FeMn,M,SPS,,,780,C,25,1510,,,,,,,,fixed strength,
J113,10.1557/jmr.2019.36,FeCoNiCuNb0.5,,,FCC + Laves,M,HR,,,,,,,,,,,,,,No data for FeCoNiCuNb0.5,
J113,10.1557/jmr.2019.36,FeCoNiCuNb5,,,FCC + Laves,M,HR,,,,C,25,1498,,37.6,,,,,,fixed processing to HR,
J113,10.1557/jmr.2019.36,FeCoNiCuNb7.5,,,FCC + Laves,M,HR,,,,C,25,1635,,31.7,,,,,,fixed processing to HR,
J113,10.1557/jmr.2019.36,FeCoNiCuNb11.6,,,FCC + Laves,M,HR,,,,C,25,1703,,18.3,,,,,,fixed processing to HR,
J113,10.1557/jmr.2019.36,FeCoNiCuNb15,,,FCC + Laves,M,HR,,,,C,25,1415,,12.6,,,,,,fixed processing to HR,
J115,10.1016/j.msea.2019.01.088,Fe50Mn30Co10Cr10,,,FCC + BCP,M,AC,,,296 $\pm$ 24,,,,,,,,,,,No mechanical data,
J115,10.1016/j.msea.2019.01.088,Fe49.7Mn30Co10Cr10B0.3,,,FCC + BCP,M,AC,,,282 $\pm$ 15,,,,,,,,,,,,
J115,10.1016/j.msea.2019.01.088,Fe49.4Mn30Co10Cr10B0.6,,,FCC + BCP,M,AC,,,306 $\pm$ 24,,,,,,,,,,,,
J115,10.1016/j.msea.2019.01.088,Fe48.3Mn30Co10Cr10B1.7,,,FCC + BCP,M,AC,,,452 $\pm$ 51,,,,,,,,,,,,
J116,10.1016/j.msea.2019.01.083,Fe40.4Ni11.3Mn34.8Al7.5Cr6,,,,,AC,,,,T,25,159 $\pm$ 11,535 $\pm$ 21,,40.8 $\pm$ 3,,,,,,
J116,10.1016/j.msea.2019.01.083,Fe40.4Ni11.3Mn34.8Al7.5Cr6,,,,M,A,,,,T,25,409 $\pm$ 12,584 $\pm$ 26,,10.5 $\pm$ 3,,,,,marked as multiphase,
J116,10.1016/j.msea.2019.01.083,(Fe40.4Ni11.3Mn34.8Al7.5Cr6)98.9C1.1,,,,,AC,,,,T,25,355 $\pm$ 7,1174 $\pm$ 19,,49.5 $\pm$ 0.6,,,,,,
J116,10.1016/j.msea.2019.01.083,(Fe40.4Ni11.3Mn34.8Al7.5Cr6)98.9C1.1,,,,M,A,,,,T,25,954 $\pm$ 49,978 $\pm$ 39,,2 $\pm$ 0.2,,,,,marked as multiphase,
J117,10.1007/s00339-019-2484-1,TiZrHf,,,2HCP,M,AC,,,211,C,25,773,,17,,,,,,changed to two HCP phases,
J117,10.1007/s00339-019-2484-1,TiZrHfSc,,,2HCP,M,AC,,,233,C,25,1001,,21.9,,,,,,changed to two HCP phases,
J117,10.1007/s00339-019-2484-1,TiZrHfY,,,2HCP,M,AC,,,241,C,25,554,,17.7,,,,,,changed to two HCP phases,
J117,10.1007/s00339-019-2484-1,TiZrHfScY,,,2HCP,M,AC,,,256,C,25,793,,15.7,,,,,,changed to two HCP phases,
J118,10.1007/s10853-018-03196-8,NiCoFeCrGa,,,FCC + BCC,M,AC,,,,,,,,,,,,,,Induction Melting,
J119,10.1007/s00339-019-2506-z,Co30Cr10Fe10Al18Ni32,,,FCC + BCC,M,AC,,,305.4 $\pm$ 6.1,C,25,1129.4,,16.7,,,,,,,
J119,10.1007/s00339-019-2506-z,Co30Cr10Fe10Al18Ni31Mo1,,,FCC + BCC,M,AC,,,357.3 $\pm$ 9.4,C,25,1159.7,,18.2,,,,,,,
J119,10.1007/s00339-019-2506-z,Co30Cr10Fe10Al18Ni30Mo2,,,FCC + BCC,M,AC,,,362.6 $\pm$ 8.2,C,25,1250.8,,14.7,,,,,,,
J119,10.1007/s00339-019-2506-z,Co30Cr10Fe10Al18Ni29Mo3,,,FCC + BCC,M,AC,,,359.7 $\pm$ 4.7,C,25,1198.3,,14.5,,,,,,,
J120,10.3390/met9030351,Fe24.1Co24.1Cr24.1Ni24.1Mo3.6,,,FCC + sigma,M,SPS,,,210,,,,,,,,,,,"No mechanical data, changed to multiphase",
J121,10.1007/s11665-018-3837-1,CoCrCuFeNi,,,FCC,S,AC,,,,C,25,300,,50.2,,,,,,,
J121,10.1007/s11665-018-3837-1,(CoCrCuFeNi)96V4,,,FCC + Cu phase,M,AC,,,,C,25,303,,50.2,,,,,,changed to multiphase,
J121,10.1007/s11665-018-3837-1,(CoCrCuFeNi)92V8,,,FCC + Cu phase,M,AC,,,,C,25,307,,50.2,,,,,,changed to multiphase,
J121,10.1007/s11665-018-3837-1,(CoCrCuFeNi)88V12,,,FCC + Sigma + Cu phase,M,AC,,,,C,25,330,,50.2,,,,,,changed to multiphase,
J121,10.1007/s11665-018-3837-1,(CoCrCuFeNi)84V16,,,FCC + Sigma + Cu phase,M,AC,,,,C,25,616,,28,,,,,,changed to multiphase,
J122,10.3390/e21020122,CoCrNiCuZn,,,FCC,S,SPS,500,5.26,,C,25,,,,,,,,,,
J122,10.3390/e21020122,CoCrNiCuZn,,,FCC,S,SPS,500,6.26,,C,25,,,,,,,,,,
J122,10.3390/e21020122,CoCrNiCuZn,,,FCC,S,SPS,500,7.84,,C,25,,,,,,,,,,
J122,10.3390/e21020122,CoCrNiCuZn,,,FCC,S,SPS,500,7.89,615,C,25,,,,,,,,,,
J123,10.3390/e21020114,HfNbTaTiZr,,,BCC,S,AC,500,,359,T,25,1155,1212,12.3,,59,,,,,
J123,10.3390/e21020114,NbTaTiZr,,,BCC,S,AC,500,,358,T,25,1144,1205,6.4,,98,,,,,
J123,10.3390/e21020114,NbTaTi,,,BCC,S,AC,500,,246,T,25,620,683,18.5,,143,,,,,
J123,10.3390/e21020114,TaTiZr,,,BCC + ,M,AC,500,,485,T,25,,284,0,,157,,,,changed to multiphase,
J123,10.3390/e21020114,NbTiZr,,,BCC,S,AC,500,,295,T,25,956,991,14.2,,88,,,,,
J123,10.3390/e21020114,Nb1.5TaTiZr0.5,,,BCC + ,M,AC,500,,294,T,25,822,852,0.33,,127,,,,changed to multiphase,
J123,10.3390/e21020114,Nb0.5TaTiZr1.5,,,BCC + ,M,AC,500,,489,T,25,,843,0,,93,,,,changed to multiphase,
J124,10.1016/j.msea.2018.12.020,AgAlNbTiZn,,,,M,A,,4.75,,,,,,,,,,,,changed to multiphase,
J124,10.1016/j.msea.2018.12.020,AgAlNbTiZn,,,,M,A,,5.78,,,,,,,,,,,,changed to multiphase,
J124,10.1016/j.msea.2018.12.020,AgAlNbTiZn,,,,M,A,,5.79,,,,,,,,,,,,changed to multiphase,
J124,10.1016/j.msea.2018.12.020,AgAlNbTiZn,,,,M,A,,5.51,,,,,,,,,,,,changed to multiphase,
J124,10.1016/j.msea.2018.12.020,AgAlNbTiZn,,,,M,A,,,,,,,,,,,,,,changed to multiphase,
J125,10.1155/2019/2157592,Fe31Mn28 Ni15Al24,,,,,AC,,,310,,,,,,,,,,,,
J125,10.1155/2019/2157592,Fe31Mn28 Ni15Al24Ti0.8,,,,,AC,,,330,,,,,,,,,,,,
J125,10.1155/2019/2157592,Fe31Mn28 Ni15Al24Ti3,,,,,AC,,,500,,,,,,,,,,,,
J125,10.1155/2019/2157592,Fe31Mn28 Ni15Al24,,,,,A,,,340,,,,,,,,,,,,
J125,10.1155/2019/2157592,Fe31Mn28 Ni15Al24Ti0.8,,,,,A,,,410,,,,,,,,,,,,
J125,10.1155/2019/2157592,Fe31Mn28 Ni15Al24Ti3,,,,,A,,,495,,,,,,,,,,,,
J125,10.1155/2019/2157592,Fe31Mn28 Ni15Al24,,,,,A,,,330,,,,,,,,,,,,
J125,10.1155/2019/2157592,Fe31Mn28 Ni15Al24Ti0.8,,,,,A,,,330,,,,,,,,,,,,
J125,10.1155/2019/2157592,Fe31Mn28 Ni15Al24Ti3,,,,,A,,,490,,,,,,,,,,,,
J126,10.1080/00325899.2019.1576389,AlCrFeNiCoC,,,FCC + BCC,M,SPS,,,,,,,,,,,,,,,
J128,10.1007/s11106-019-00012-z,CrFeNiCuTi,,,FCC + BCC,M,AC,,,,,,,,,,,,,,No Mechanical Data,
J128,10.1007/s11106-019-00012-z,CrFeNiCuTi,,,FCC + BCC,M,HF + A,,,,,,,,,,,,,,,
J128,10.1007/s11106-019-00012-z,CrFeNiCuTi,,,FCC + BCC,M,HF + A,,,,,,,,,,,,,,,
J128,10.1007/s11106-019-00012-z,CrFeNiCuTi,,,FCC + BCC,M,HF + A,,,,,,,,,,,,,,,
J129,10.1080/00325899.2018.1554834,CrMnFeCoNi,,,FCC  ,S,SPS,0.03,7.753,435 $\pm$ 25,C,25,1100,,47,,,,,,,
J130,10.1007/s11665-018-3822-8,CuCrFeNiAl0.5,,,FCC,S,AC,,,226,,,,,,,,,,,,
J130,10.1007/s11665-018-3822-8,CuCrFeNiAl0.5,,,FCC,S,CR + A,,,287,,,,,,,,,,,,
J131,10.3390/e21010015,HfMoNbTaTiZr,,,BCC,S,AC,,,,C,25,1512,,12,,,,,,,
J131,10.3390/e21010015,HfMoTaTiZr,,,BCC,S,AC,,,,C,25,1600,,4,,,,,,,
J131,10.3390/e21010015,HfMoNbTiZr,,,BCC,S,AC,,,,C,25,1351,,20,,,,,,,
J131,10.3390/e21010015,HfMoNbTaZr,,,BCC,S,AC,,,,C,25,1524,,16,,,,,,,
J131,10.3390/e21010015,HfMoNbTaTi ,,,BCC,S,AC,,,,C,25,1369,,27,,,,,,,
J131,10.3390/e21010015,HfMoNbTaTiZr,,,BCC,S,AC,,,,C,800,1007,,,,,,,,,
J131,10.3390/e21010015,HfMoTaTiZr,,,BCC,S,AC,,,,C,800,1045,,,,,,,,,
J131,10.3390/e21010015,HfMoNbTiZr,,,BCC,S,AC,,,,C,800,829,,,,,,,,,
J131,10.3390/e21010015,HfMoNbTaZr,,,BCC,S,AC,,,,C,800,1005,,,,,,,,,
J131,10.3390/e21010015,HfMoNbTaTi ,,,BCC,S,AC,,,,C,800,822,,,,,,,,,
J131,10.3390/e21010015,HfMoNbTaTiZr,,,BCC,S,AC,,,,C,1000,814,,,,,,,,,
J131,10.3390/e21010015,HfMoTaTiZr,,,BCC,S,AC,,,,C,1000,855,,,,,,,,,
J131,10.3390/e21010015,HfMoNbTiZr,,,BCC,S,AC,,,,C,1000,721,,,,,,,,,
J131,10.3390/e21010015,HfMoNbTaZr,,,BCC,S,AC,,,,C,1000,927,,,,,,,,,
J131,10.3390/e21010015,HfMoNbTaTi ,,,BCC,S,AC,,,,C,1000,778,,,,,,,,,
J131,10.3390/e21010015,HfMoNbTaTiZr,,,BCC,S,AC,,,,C,1200,556,,,,,,,,,
J131,10.3390/e21010015,HfMoTaTiZr,,,BCC,S,AC,,,,C,1200,404,,,,,,,,,
J131,10.3390/e21010015,HfMoNbTiZr,,,BCC,S,AC,,,,C,1200,301,,,,,,,,,
J131,10.3390/e21010015,HfMoNbTaZr,,,BCC,S,AC,,,,C,1200,694,,,,,,,,,
J131,10.3390/e21010015,HfMoNbTaTi ,,,BCC,S,AC,,,,C,1200,699,,,,,,,,,
J131,10.3390/e21010015,HfMoNbTaZr,,,BCC,S,AC,,,,C,1400,278,,,,,,,,,
J131,10.3390/e21010015,HfMoNbTaTi ,,,BCC,S,AC,,,,C,1400,367,,,,,,,,,
J132,10.3390/coatings9010016,CoCrFeNi,,,FCC,S,VHP,0.0276,,,,,,,,,,,,,,
J132,10.3390/coatings9010016,(CoCrFeNi)0.9(WC)0.1,,,FCC,S,VHP,0.0189,7.24 $\pm$ 0.02,475,,,,,,,,,,,,
J132,10.3390/coatings9010016,(CoCrFeNi)0.7(WC)0.3,,,FCC,S,VHP,0.0182,8.39 $\pm$ 0.03,531,,,,,,,,,,,,
J133,10.5755/j01.ms.25.3.19452,Al0.4FeCrCo1.5NiTi0.3,,,FCC + BCC,M,SPS,,,515 $\pm$ 16,C,25,2012 $\pm$ 20,,,17.52 $\pm$ 0.5,,,,,,
J134,10.1007/s11661-018-4646-8,HfNbTaTiZr,,,BCC,S,AC,,,,T,25,1438,1218,5,,91.5,,,,Hot Isostatically Pressed,
J134,10.1007/s11661-018-4646-8,HfNbTaTiZr,,,BCC,S,HIP + CR + A,,,,T,25,1159,1127,4.7,,99.2,,,,these are true strains but it's close enough ,
J134,10.1007/s11661-018-4646-8,HfNbTaTiZr,,,BCC,S,HIP + CR + A,,,,T,25,1134,1134,7.6,,109.1,,,,,
J134,10.1007/s11661-018-4646-8,HfNbTaTiZr,,,BCC,S,HIP + CR + A,,,,T,25,1094,1066,6,,105.3,,,,,
J134,10.1007/s11661-018-4646-8,HfNbTaTiZr,,,BCC,S,HIP + CR + A,,,,T,25,1071,964,4.6,,91.6,,,,,
J134,10.1007/s11661-018-4646-8,HfNbTaTiZr,,,BCC,S,HIP + CR + A,24.4,,,T,25,1107,977,13.9,,92.6,,,,,
J134,10.1007/s11661-018-4646-8,HfNbTaTiZr,,,BCC,S,HIP + CR + A,31.3,,,T,25,1115,830,18.5,,92.6,,,,,
J134,10.1007/s11661-018-4646-8,HfNbTaTiZr,,,BCC,S,HIP + CR + A,38.4,,,T,25,1114,935,12.2,,101.3,,,,,
J134,10.1007/s11661-018-4646-8,HfNbTaTiZr,,,BCC,S,HIP + CR + A,50.1,,,,,,,,,,,,,,
J134,10.1007/s11661-018-4646-8,HfNbTaTiZr,,,BCC,S,HIP + CR + A,21.9,,,,,,,,,,,,,,
J134,10.1007/s11661-018-4646-8,HfNbTaTiZr,,,BCC,S,HIP + CR + A,75.5,,,,,,,,,,,,,,
J135,10.1080/02670836.2018.1446267,AlNbTiZr,,,B2,S,AC,250,5.85,422 $\pm$ 15,C,25,1509,,8.6,,,,,,,
J135,10.1080/02670836.2018.1446267,AlNbTiZr,,,B2 + Zr5Al3,M,A,,,418 $\pm$ 15,C,25,1579,,17.8,,,,,,,
J135-18,10.1016/j.matlet.2015.08.099,AlNbTiVZr0.5,,,,,,,5.64,,C,25,1480,,>50,,,,,,,
J135-19,10.1179/1743284715Y.0000000032,AlNbTiZr,,,,,,,5.79,539.6,C,25,1080,,5.9,,,,,,,
J135-24,10.1016/j.actamat.2012.11.032,NbTiVZr,,,,,,,6.52,335,C,25,1105,,>50,,,,,,,
J135-24,10.1016/j.actamat.2012.11.032,CrNbTiZr,,,,,,,6.67,418,C,25,1260,,6,,,,,,,
new_ref_2,10.1002/maco.201709833,AlCrFeNiMo0.5,,,BCC+B2,M,AC,,,623.7,C,25,1914.1,4023.6,27.9,,,,,,,
new_ref_2,10.1002/maco.201709833,AlCrFeNiMo0.5Ti0.25,,,BCC+B2,M,AC,,,712,C,25,2161.7,3641.5,14.3,,,,,,,
new_ref_2,10.1002/maco.201709833,AlCrFeNiMo0.5Ti0.4,,,BCC+B2,M,AC,,,731.9,C,25,2185.1,3673.4,14.8,,,,,,,
new_ref_2,10.1002/maco.201709833,AlCrFeNiMo0.5Ti0.5,,,BCC+B2,M,AC,,,751.7,C,25,2228.7,3166.2,10.4,,,,,,,
new_ref_2,10.1002/maco.201709833,AlCrFeNiMo0.5Ti0.6,,,BCC+B2,M,AC,,,756.1,C,25,1314.5,1314.5,,,,,,,,
new_ref_2,10.1002/maco.201709833,AlCrFeNiMo0.5Ti0.75,,,BCC+B2,M,AC,,,766.2,C,25,618.8,618.8,,,,,,,,
new_ref_4,10.1016/j.matdes.2018.06.003,AlCrMoNb,,,Laves (C14)+A15,M,A,,,,,,,,,,,,,,,
new_ref_4,10.1016/j.matdes.2018.06.003,AlCrMoNb,,,Laves (C14)+A15,M,AC,,,,,,,,,,,,,,,
new_ref_4,10.1016/j.matdes.2018.06.003,AlHfNbTi,,,B2,S,A,,,,,,,,,,,,,,,
new_ref_4,10.1016/j.matdes.2018.06.003,AlHfNbTi,,,B2,S,AC,,,,,,,,,,,,,,,
new_ref_4,10.1016/j.matdes.2018.06.003,AlHfTaTi,,,B2,S,A,,,,,,,,,,,,,,,
new_ref_4,10.1016/j.matdes.2018.06.003,AlHfTaTi,,,B2,S,AC,,,,,,,,,,,,,,,
new_ref_4,10.1016/j.matdes.2018.06.003,AlMoNbTi,,,BCC+A15,M,A,,,,,,,,,,,,,,,
new_ref_4,10.1016/j.matdes.2018.06.003,AlMoNbTi,,,BCC,S,AC,,,509 $\pm$ 18,,,,,,,,,,,,
new_ref_4,10.1016/j.matdes.2018.06.003,AlNbTaTi,,,BCC+A15,M,A,,,,,,,,,,,,,,,
new_ref_4,10.1016/j.matdes.2018.06.003,AlNbTaTi,,,BCC,S,AC,,,458 $\pm$ 10,,,,,,,,,,,,
new_ref_4,10.1016/j.matdes.2018.06.003,CrMoTaTi,,,BCC,S,A,,,555 $\pm$ 24,,,,,,,,,,,,
new_ref_4,10.1016/j.matdes.2018.06.003,CrMoTaTi,,,BCC,S,AC,,,539 $\pm$ 32,,,,,,,,,,,,
new_ref_4,10.1016/j.matdes.2018.06.003,CrNbTaTi,,,BCC+Laves (C15),M,A,,,,,,,,,,,,,,,
new_ref_4,10.1016/j.matdes.2018.06.003,CrNbTaTi,,,BCC,S,AC,,,495 $\pm$ 26,,,,,,,,,,,,
new_ref_4,10.1016/j.matdes.2018.06.003,CrNbTiW,,,BCC+Laves (C15),M,A,,,630 $\pm$ 28,,,,,,,,,,,,
new_ref_4,10.1016/j.matdes.2018.06.003,CrNbTiW,,,BCC,S,AC,,,630 $\pm$ 24,,,,,,,,,,,,
new_ref_4,10.1016/j.matdes.2018.06.003,HfNbTaTi,,,BCC,S,A,,,280 $\pm$ 10,,,,,,,,,,,,
new_ref_4,10.1016/j.matdes.2018.06.003,HfNbTaTi,,,BCC,S,AC,,,270 $\pm$ 5,,,,,,,,,,,,
new_ref_4,10.1016/j.matdes.2018.06.003,MoNbTaTiW,,,BCC,S,A,,,482 $\pm$ 10,,,,,,,,,,,,
new_ref_4,10.1016/j.matdes.2018.06.003,MoNbTaTiW,,,BCC,S,AC,,,446 $\pm$ 32,,,,,,,,,,,,
new_ref_4,10.1016/j.matdes.2018.06.003,MoNbTaTi,,,BCC,S,A,,,407 $\pm$ 17,,,,,,,,,,,,
new_ref_4,10.1016/j.matdes.2018.06.003,MoNbTaTi,,,BCC,S,AC,,,431 $\pm$ 7,,,,,,,,,,,,