File: stats_and_tables/compositions.csv
Alloy name,Ag,Al,B,C,Ca,Co,Cr,Cu,Fe,Ga,Hf,Li,Mg,Mn,Mo,Nb,Nd,Ni,Pd,Re,Sc,Si,Sn,Ta,Ti,V,W,Y,Zn,Zr
Al0.25 Co1 Fe1 Ni1,,0.077,,,,0.308,,,0.308,,,,,,,,,0.308,,,,,,,,,,,,
Al0.5 Co1 Fe1 Ni1,,0.143,,,,0.286,,,0.286,,,,,,,,,0.286,,,,,,,,,,,,
Al0.75 Co1 Fe1 Ni1,,0.2,,,,0.267,,,0.267,,,,,,,,,0.267,,,,,,,,,,,,
Al1 Co1 Fe1 Ni1,,0.25,,,,0.25,,,0.25,,,,,,,,,0.25,,,,,,,,,,,,
Co1 Fe1 Ni1,,,,,,0.333,,,0.333,,,,,,,,,0.333,,,,,,,,,,,,
Co1 Fe1 Ni1 Si0.25,,,,,,0.308,,,0.308,,,,,,,,,0.308,,,,0.077,,,,,,,,
Co1 Fe1 Ni1 Si0.5,,,,,,0.286,,,0.286,,,,,,,,,0.286,,,,0.143,,,,,,,,
Co1 Fe1 Ni1 Si0.75,,,,,,0.267,,,0.267,,,,,,,,,0.267,,,,0.2,,,,,,,,
Co1 Cr1 Fe1 Ni1,,,,,,0.25,0.25,,0.25,,,,,,,,,0.25,,,,,,,,,,,,
Co1 Cr1 Mn1 Ni1,,,,,,0.25,0.25,,,,,,,0.25,,,,0.25,,,,,,,,,,,,
Co1 Cr1 Ni1,,,,,,0.333,0.333,,,,,,,,,,,0.333,,,,,,,,,,,,
Co1 Fe1 Mn1 Ni1,,,,,,0.25,,,0.25,,,,,0.25,,,,0.25,,,,,,,,,,,,
Co1 Mn1 Ni1,,,,,,0.333,,,,,,,,0.333,,,,0.333,,,,,,,,,,,,
Fe1 Mn1 Ni1,,,,,,,,,0.333,,,,,0.333,,,,0.333,,,,,,,,,,,,
Co1 Cr1 Fe1 Nb0.103 Ni1,,,,,,0.244,0.244,,0.244,,,,,,,0.025,,0.244,,,,,,,,,,,,
Co1 Cr1 Fe1 Nb0.155 Ni1,,,,,,0.241,0.241,,0.241,,,,,,,0.037,,0.241,,,,,,,,,,,,
Co1 Cr1 Fe1 Nb0.206 Ni1,,,,,,0.238,0.238,,0.238,,,,,,,0.049,,0.238,,,,,,,,,,,,
Co1 Cr1 Fe1 Nb0.309 Ni1,,,,,,0.232,0.232,,0.232,,,,,,,0.072,,0.232,,,,,,,,,,,,
Co1 Cr1 Fe1 Nb0.412 Ni1,,,,,,0.227,0.227,,0.227,,,,,,,0.093,,0.227,,,,,,,,,,,,
Al0.25 Co1 Cr1 Fe1 Ni1,,0.059,,,,0.235,0.235,,0.235,,,,,,,,,0.235,,,,,,,,,,,,
Al0.375 Co1 Cr1 Fe1 Ni1,,0.086,,,,0.229,0.229,,0.229,,,,,,,,,0.229,,,,,,,,,,,,
Al0.5 Co1 Cr1 Fe1 Ni1,,0.111,,,,0.222,0.222,,0.222,,,,,,,,,0.222,,,,,,,,,,,,
Al0.75 Co1 Cr1 Fe1 Ni1,,0.158,,,,0.211,0.211,,0.211,,,,,,,,,0.211,,,,,,,,,,,,
Al0.875 Co1 Cr1 Fe1 Ni1,,0.179,,,,0.205,0.205,,0.205,,,,,,,,,0.205,,,,,,,,,,,,
Al1 Co0.8 Cr0.8 Fe0.8 Ni0.8,,0.238,,,,0.19,0.19,,0.19,,,,,,,,,0.19,,,,,,,,,,,,
Al1 Co0.667 Cr0.667 Fe0.667 Ni0.667,,0.273,,,,0.182,0.182,,0.182,,,,,,,,,0.182,,,,,,,,,,,,
Al1 Co0.5 Cr0.5 Fe0.5 Ni0.5,,0.333,,,,0.167,0.167,,0.167,,,,,,,,,0.167,,,,,,,,,,,,
Al1 Co1 Cr1 Fe1 Ni1,,0.2,,,,0.2,0.2,,0.2,,,,,,,,,0.2,,,,,,,,,,,,
Al0.5 Co1 Cr1 Fe1 Mo0.5 Ni1,,0.1,,,,0.2,0.2,,0.2,,,,,,0.1,,,0.2,,,,,,,,,,,,
Al1 Co0.667 Cr0.667 Fe0.667 Mo0.333 Ni0.667,,0.25,,,,0.167,0.167,,0.167,,,,,,0.083,,,0.167,,,,,,,,,,,,
Al1 Co0.5 Cr0.5 Fe0.5 Mo0.25 Ni0.5,,0.308,,,,0.154,0.154,,0.154,,,,,,0.077,,,0.154,,,,,,,,,,,,
Al1 Co1 Cr1 Fe1 Mo0.5 Ni1,,0.182,,,,0.182,0.182,,0.182,,,,,,0.091,,,0.182,,,,,,,,,,,,
Co1 Cr1 Fe1 Mo0.5 Ni1,,,,,,0.222,0.222,,0.222,,,,,,0.111,,,0.222,,,,,,,,,,,,
Al0.5 Co1 Cr1 Fe1 Ni1 Ti1,,0.091,,,,0.182,0.182,,0.182,,,,,,,,,0.182,,,,,,,0.182,,,,,
Al1 Co0.667 Cr0.667 Fe0.667 Ni0.667 Ti0.667,,0.231,,,,0.154,0.154,,0.154,,,,,,,,,0.154,,,,,,,0.154,,,,,
Al1 Co0.5 Cr0.5 Fe0.5 Ni0.5 Ti0.5,,0.286,,,,0.143,0.143,,0.143,,,,,,,,,0.143,,,,,,,0.143,,,,,
Al1 Co1 Cr1 Fe1 Ni1 Ti1,,0.167,,,,0.167,0.167,,0.167,,,,,,,,,0.167,,,,,,,0.167,,,,,
Co1 Cr1 Fe1 Ni1 Ti1,,,,,,0.2,0.2,,0.2,,,,,,,,,0.2,,,,,,,0.2,,,,,
Al0.133 Co1 Cr0.667 Fe0.667 Ni1 Ti0.667,,0.032,,,,0.242,0.161,,0.161,,,,,,,,,0.242,,,,,,,0.161,,,,,
Al0.133 Co1 Cr0.667 Fe0.667 Ni1 Ti0.333,,0.035,,,,0.263,0.176,,0.176,,,,,,,,,0.263,,,,,,,0.088,,,,,
Co1 Cr0.667 Fe0.667 Ni1 Ti0.667,,,,,,0.25,0.167,,0.167,,,,,,,,,0.25,,,,,,,0.167,,,,,
Co1 Cr0.667 Fe0.667 Ni1 Ti0.333,,,,,,0.273,0.182,,0.182,,,,,,,,,0.273,,,,,,,0.091,,,,,
Al0.7 Co0.3 Cr1 Fe1 Ni1,,0.175,,,,0.075,0.25,,0.25,,,,,,,,,0.25,,,,,,,,,,,,
Al1 Co0.4 Cr0.4 Fe0.4 Ni0.4,,0.385,,,,0.154,0.154,,0.154,,,,,,,,,0.154,,,,,,,,,,,,
Al1 Co0.333 Cr0.333 Fe0.333 Ni0.333,,0.429,,,,0.143,0.143,,0.143,,,,,,,,,0.143,,,,,,,,,,,,
Al1 Cr1 Cu1 Fe1 Ni1,,0.2,,,,,0.2,0.2,0.2,,,,,,,,,0.2,,,,,,,,,,,,
Co1 Cr1 Cu1 Fe1 Ni1,,,,,,0.2,0.2,0.2,0.2,,,,,,,,,0.2,,,,,,,,,,,,
Cr1 Cu1 Fe1 Mn1 Ni1,,,,,,,0.2,0.2,0.2,,,,,0.2,,,,0.2,,,,,,,,,,,,
Cr1 Cu1 Fe1 Mo1 Ni1,,,,,,,0.2,0.2,0.2,,,,,,0.2,,,0.2,,,,,,,,,,,,
Al1 C0.1 Co1 Cr1 Fe1 Ni1,,0.196,,0.02,,0.196,0.196,,0.196,,,,,,,,,0.196,,,,,,,,,,,,
Al1 C0.2 Co1 Cr1 Fe1 Ni1,,0.192,,0.038,,0.192,0.192,,0.192,,,,,,,,,0.192,,,,,,,,,,,,
Al1 C0.3 Co1 Cr1 Fe1 Ni1,,0.189,,0.057,,0.189,0.189,,0.189,,,,,,,,,0.189,,,,,,,,,,,,
Al1 C0.4 Co1 Cr1 Fe1 Ni1,,0.185,,0.074,,0.185,0.185,,0.185,,,,,,,,,0.185,,,,,,,,,,,,
Al1 C0.5 Co1 Cr1 Fe1 Ni1,,0.182,,0.091,,0.182,0.182,,0.182,,,,,,,,,0.182,,,,,,,,,,,,
Al0.667 C1 Co0.667 Cr0.667 Fe0.667 Ni0.667,,0.154,,0.231,,0.154,0.154,,0.154,,,,,,,,,0.154,,,,,,,,,,,,
Al1 C1 Co1 Cr1 Fe1 Ni1,,0.167,,0.167,,0.167,0.167,,0.167,,,,,,,,,0.167,,,,,,,,,,,,
Al1 Co1 Cr1 Fe1 Mo0.1 Ni1,,0.196,,,,0.196,0.196,,0.196,,,,,,0.02,,,0.196,,,,,,,,,,,,
Al1 Co1 Cr1 Fe1 Mo0.2 Ni1,,0.192,,,,0.192,0.192,,0.192,,,,,,0.038,,,0.192,,,,,,,,,,,,
Al1 Co1 Cr1 Fe1 Mo0.3 Ni1,,0.189,,,,0.189,0.189,,0.189,,,,,,0.057,,,0.189,,,,,,,,,,,,
Al1 Co1 Cr1 Fe1 Mo0.4 Ni1,,0.185,,,,0.185,0.185,,0.185,,,,,,0.074,,,0.185,,,,,,,,,,,,
Al1 Co1 Cr1 Fe1 Nb0.1 Ni1,,0.196,,,,0.196,0.196,,0.196,,,,,,,0.02,,0.196,,,,,,,,,,,,
Al1 Co1 Cr1 Fe1 Nb0.25 Ni1,,0.19,,,,0.19,0.19,,0.19,,,,,,,0.048,,0.19,,,,,,,,,,,,
Al1 Co1 Cr1 Fe1 Nb0.5 Ni1,,0.182,,,,0.182,0.182,,0.182,,,,,,,0.091,,0.182,,,,,,,,,,,,
Al1 Co1 Cr1 Fe1 Nb0.75 Ni1,,0.174,,,,0.174,0.174,,0.174,,,,,,,0.13,,0.174,,,,,,,,,,,,
Al0.8 Co1 Cr1 Cu1 Fe1 Ni1,,0.138,,,,0.172,0.172,0.172,0.172,,,,,,,,,0.172,,,,,,,,,,,,
Al1 Co0.5 Cr1 Fe1 Mo0.5 Ni1,,0.2,,,,0.1,0.2,,0.2,,,,,,0.1,,,0.2,,,,,,,,,,,,
Al0.667 Co1 Cr0.667 Fe0.667 Mo0.333 Ni0.667,,0.167,,,,0.25,0.167,,0.167,,,,,,0.083,,,0.167,,,,,,,,,,,,
Al0.5 Co1 Cr0.5 Fe0.5 Mo0.25 Ni0.5,,0.154,,,,0.308,0.154,,0.154,,,,,,0.077,,,0.154,,,,,,,,,,,,
Al1 Co1 Cr1 Fe0.6 Mo0.5 Ni1,,0.196,,,,0.196,0.196,,0.118,,,,,,0.098,,,0.196,,,,,,,,,,,,
Al0.667 Co0.667 Cr0.667 Fe1 Mo0.333 Ni0.667,,0.167,,,,0.167,0.167,,0.25,,,,,,0.083,,,0.167,,,,,,,,,,,,
Al0.5 Co0.5 Cr0.5 Fe1 Mo0.25 Ni0.5,,0.154,,,,0.154,0.154,,0.308,,,,,,0.077,,,0.154,,,,,,,,,,,,
Al1 Co1 Cr1 Fe1 Mo0.5,,0.222,,,,0.222,0.222,,0.222,,,,,,0.111,,,,,,,,,,,,,,,
Al1 Co1 Cr1 Fe1 Mo0.5 Ni0.5,,0.2,,,,0.2,0.2,,0.2,,,,,,0.1,,,0.1,,,,,,,,,,,,
Al0.667 Co0.667 Cr0.667 Fe0.667 Mo0.333 Ni1,,0.167,,,,0.167,0.167,,0.167,,,,,,0.083,,,0.25,,,,,,,,,,,,
Al0.5 Co0.5 Cr0.5 Fe0.5 Mo0.25 Ni1,,0.154,,,,0.154,0.154,,0.154,,,,,,0.077,,,0.308,,,,,,,,,,,,
Al1 Co1 Cr1 Fe1 Ni1 Si1,,0.167,,,,0.167,0.167,,0.167,,,,,,,,,0.167,,,,0.167,,,,,,,,
Al1 Co1 Cr1 Fe1 Ni1 Si0.2,,0.192,,,,0.192,0.192,,0.192,,,,,,,,,0.192,,,,0.038,,,,,,,,
Al1 Co1 Cr1 Fe1 Ni1 Si0.4,,0.185,,,,0.185,0.185,,0.185,,,,,,,,,0.185,,,,0.074,,,,,,,,
Al1 Co1 Cr1 Fe1 Ni1 Si0.6,,0.179,,,,0.179,0.179,,0.179,,,,,,,,,0.179,,,,0.107,,,,,,,,
Al1 Co1 Cr1 Fe1 Ni1 Si0.8,,0.172,,,,0.172,0.172,,0.172,,,,,,,,,0.172,,,,0.138,,,,,,,,
Al0.25 Co1 Cr1 Cu0.5 Fe1 Ni1 Ti0.5,,0.048,,,,0.19,0.19,0.095,0.19,,,,,,,,,0.19,,,,,,,0.095,,,,,
Al0.25 Co1 Cr1 Cu0.75 Fe1 Ni1 Ti0.5,,0.045,,,,0.182,0.182,0.136,0.182,,,,,,,,,0.182,,,,,,,0.091,,,,,
Al0.5 Co1 Cr1 Cu0.5 Fe1 Ni1 Ti0.5,,0.091,,,,0.182,0.182,0.091,0.182,,,,,,,,,0.182,,,,,,,0.091,,,,,
Al0.75 Co1 Cr1 Cu0.25 Fe1 Ni1 Ti0.5,,0.136,,,,0.182,0.182,0.045,0.182,,,,,,,,,0.182,,,,,,,0.091,,,,,
Co1 Cr1 Cu1 Fe1 Ni1 Ti0.5,,,,,,0.182,0.182,0.182,0.182,,,,,,,,,0.182,,,,,,,0.091,,,,,
Al1 Co1 Cr1 Fe1 Ni1 Ti0.5,,0.182,,,,0.182,0.182,,0.182,,,,,,,,,0.182,,,,,,,0.091,,,,,
Al0.667 Co0.667 Cr0.667 Fe0.667 Ni0.667 Ti1,,0.154,,,,0.154,0.154,,0.154,,,,,,,,,0.154,,,,,,,0.231,,,,,
Al1 Co1 Cr1 Fe1 Ni1 Ti1 V1 Zr1,,0.125,,,,0.125,0.125,,0.125,,,,,,,,,0.125,,,,,,,0.125,0.125,,,,0.125
Al1 Co1 Fe1 Ni1 Ti1 V1 Zr1,,0.143,,,,0.143,,,0.143,,,,,,,,,0.143,,,,,,,0.143,0.143,,,,0.143
Al1 Fe1 Ni1 Ti1 V1 Zr1,,0.167,,,,,,,0.167,,,,,,,,,0.167,,,,,,,0.167,0.167,,,,0.167
Co1 Cr1 Cu1 Fe1 Ni1 Ti1 V1 Zr1,,,,,,0.125,0.125,0.125,0.125,,,,,,,,,0.125,,,,,,,0.125,0.125,,,,0.125
Co1 Cr1 Fe1 Mo1 Ni1 Ti1 V1 Zr1,,,,,,0.125,0.125,,0.125,,,,,,0.125,,,0.125,,,,,,,0.125,0.125,,,,0.125
Co1 Cu1 Fe1 Ni1 Ti1 V1 Zr1,,,,,,0.143,,0.143,0.143,,,,,,,,,0.143,,,,,,,0.143,0.143,,,,0.143
Co1 Fe1 Mo1 Ni1 Ti1 V1 Zr1,,,,,,0.143,,,0.143,,,,,,0.143,,,0.143,,,,,,,0.143,0.143,,,,0.143
Cu1 Fe1 Ni1 Ti1 V1 Zr1,,,,,,,,0.167,0.167,,,,,,,,,0.167,,,,,,,0.167,0.167,,,,0.167
Fe1 Mo1 Ni1 Ti1 V1 Zr1,,,,,,,,,0.167,,,,,,0.167,,,0.167,,,,,,,0.167,0.167,,,,0.167
Al0.1 Co1 Cr1 Fe1 Mn1 Ni1,,0.02,,,,0.196,0.196,,0.196,,,,,0.196,,,,0.196,,,,,,,,,,,,
Al0.2 Co1 Cr1 Fe1 Mn1 Ni1,,0.038,,,,0.192,0.192,,0.192,,,,,0.192,,,,0.192,,,,,,,,,,,,
Al0.38 Co1 Cr1 Fe1 Mn1 Ni1,,0.071,,,,0.186,0.186,,0.186,,,,,0.186,,,,0.186,,,,,,,,,,,,
Al0.43 Co1 Cr1 Fe1 Mn1 Ni1,,0.079,,,,0.184,0.184,,0.184,,,,,0.184,,,,0.184,,,,,,,,,,,,
Al0.49 Co1 Cr1 Fe1 Mn1 Ni1,,0.089,,,,0.182,0.182,,0.182,,,,,0.182,,,,0.182,,,,,,,,,,,,
Al0.56 Co1 Cr1 Fe1 Mn1 Ni1,,0.101,,,,0.18,0.18,,0.18,,,,,0.18,,,,0.18,,,,,,,,,,,,
Al0.62 Co1 Cr1 Fe1 Mn1 Ni1,,0.11,,,,0.178,0.178,,0.178,,,,,0.178,,,,0.178,,,,,,,,,,,,
Al0.68 Co1 Cr1 Fe1 Mn1 Ni1,,0.12,,,,0.176,0.176,,0.176,,,,,0.176,,,,0.176,,,,,,,,,,,,
Al0.75 Co1 Cr1 Fe1 Mn1 Ni1,,0.13,,,,0.174,0.174,,0.174,,,,,0.174,,,,0.174,,,,,,,,,,,,
Al0.81 Co1 Cr1 Fe1 Mn1 Ni1,,0.139,,,,0.172,0.172,,0.172,,,,,0.172,,,,0.172,,,,,,,,,,,,
Al0.88 Co1 Cr1 Fe1 Mn1 Ni1,,0.15,,,,0.17,0.17,,0.17,,,,,0.17,,,,0.17,,,,,,,,,,,,
Al0.95 Co1 Cr1 Fe1 Mn1 Ni1,,0.16,,,,0.168,0.168,,0.168,,,,,0.168,,,,0.168,,,,,,,,,,,,
Al1 Co0.8 Cr0.8 Fe0.8 Mn0.8 Ni0.8,,0.2,,,,0.16,0.16,,0.16,,,,,0.16,,,,0.16,,,,,,,,,,,,
Co1 Cr1 Fe1 Mn1 Ni1,,,,,,0.2,0.2,,0.2,,,,,0.2,,,,0.2,,,,,,,,,,,,
Co1 Cr1 Fe1 Mn1 Ni1 V0.25,,,,,,0.19,0.19,,0.19,,,,,0.19,,,,0.19,,,,,,,,0.048,,,,
Co1 Cr1 Fe1 Mn1 Ni1 V0.5,,,,,,0.182,0.182,,0.182,,,,,0.182,,,,0.182,,,,,,,,0.091,,,,
Co1 Cr1 Fe1 Mn1 Ni1 V0.75,,,,,,0.174,0.174,,0.174,,,,,0.174,,,,0.174,,,,,,,,0.13,,,,
Co1 Cr1 Fe1 Mn1 Ni1 V1,,,,,,0.167,0.167,,0.167,,,,,0.167,,,,0.167,,,,,,,,0.167,,,,
Al0.2 Cr0.667 Fe1 Mn0.667 Ni0.333,,0.07,,,,,0.233,,0.349,,,,,0.233,,,,0.116,,,,,,,,,,,,
Al0.333 Cr0.667 Fe1 Mn0.667 Ni0.333,,0.111,,,,,0.222,,0.333,,,,,0.222,,,,0.111,,,,,,,,,,,,
Al1 Cr1 Fe1 Ni1,,0.25,,,,,0.25,,0.25,,,,,,,,,0.25,,,,,,,,,,,,
Al1 Cr1 Fe1 Mo1 Ni1,,0.2,,,,,0.2,,0.2,,,,,,0.2,,,0.2,,,,,,,,,,,,
Al1 Cr1 Fe1 Mo0.2 Ni1,,0.238,,,,,0.238,,0.238,,,,,,0.048,,,0.238,,,,,,,,,,,,
Al1 Cr1 Fe1 Mo0.5 Ni1,,0.222,,,,,0.222,,0.222,,,,,,0.111,,,0.222,,,,,,,,,,,,
Al1 Cr1 Fe1 Mo0.8 Ni1,,0.208,,,,,0.208,,0.208,,,,,,0.167,,,0.208,,,,,,,,,,,,
Al0.3 Co1 Cr1 Cu1 Fe1,,0.07,,,,0.233,0.233,0.233,0.233,,,,,,,,,,,,,,,,,,,,,
Al0.5 Co1 Cr1 Cu1 Fe1,,0.111,,,,0.222,0.222,0.222,0.222,,,,,,,,,,,,,,,,,,,,,
Al0.8 Co1 Cr1 Cu1 Fe1,,0.167,,,,0.208,0.208,0.208,0.208,,,,,,,,,,,,,,,,,,,,,
Al1 Co0.769 Cr0.769 Cu0.769 Fe0.769,,0.245,,,,0.189,0.189,0.189,0.189,,,,,,,,,,,,,,,,,,,,,
Al1 Co0.667 Cr0.667 Cu0.667 Fe0.667,,0.273,,,,0.182,0.182,0.182,0.182,,,,,,,,,,,,,,,,,,,,,
Al1 Co0.556 Cr0.556 Cu0.556 Fe0.556,,0.31,,,,0.172,0.172,0.172,0.172,,,,,,,,,,,,,,,,,,,,,
Al1 Co0.5 Cr0.5 Cu0.5 Fe0.5,,0.333,,,,0.167,0.167,0.167,0.167,,,,,,,,,,,,,,,,,,,,,
Al1 Co0.435 Cr0.435 Cu0.435 Fe0.435,,0.365,,,,0.159,0.159,0.159,0.159,,,,,,,,,,,,,,,,,,,,,
Al1 Co0.4 Cr0.4 Cu0.4 Fe0.4,,0.385,,,,0.154,0.154,0.154,0.154,,,,,,,,,,,,,,,,,,,,,
Al1 Co0.357 Cr0.357 Cu0.357 Fe0.357,,0.412,,,,0.147,0.147,0.147,0.147,,,,,,,,,,,,,,,,,,,,,
Al1 Co0.333 Cr0.333 Cu0.333 Fe0.333,,0.429,,,,0.143,0.143,0.143,0.143,,,,,,,,,,,,,,,,,,,,,
Al1 Co1 Cr1 Cu1 Fe1,,0.2,,,,0.2,0.2,0.2,0.2,,,,,,,,,,,,,,,,,,,,,
Co1 Cr1 Cu1 Fe1,,,,,,0.25,0.25,0.25,0.25,,,,,,,,,,,,,,,,,,,,,
Co1 Cr1 Cu0.5 Fe1 Ni1,,,,,,0.222,0.222,0.111,0.222,,,,,,,,,0.222,,,,,,,,,,,,
Co1 Cr1 Cu1 Fe1 Ni1 Ti1,,,,,,0.167,0.167,0.167,0.167,,,,,,,,,0.167,,,,,,,0.167,,,,,
Co1 Cr1 Cu1 Fe1 Ni1 Ti0.8,,,,,,0.172,0.172,0.172,0.172,,,,,,,,,0.172,,,,,,,0.138,,,,,
Al0.5 B0.2 Co1 Cr1 Cu1 Fe1 Ni1,,0.088,0.035,,,0.175,0.175,0.175,0.175,,,,,,,,,0.175,,,,,,,,,,,,
Al0.5 B0.6 Co1 Cr1 Cu1 Fe1 Ni1,,0.082,0.098,,,0.164,0.164,0.164,0.164,,,,,,,,,0.164,,,,,,,,,,,,
Al0.5 B1 Co1 Cr1 Cu1 Fe1 Ni1,,0.077,0.154,,,0.154,0.154,0.154,0.154,,,,,,,,,0.154,,,,,,,,,,,,
Al0.5 Co1 Cr1 Cu1 Fe1 Ni1,,0.091,,,,0.182,0.182,0.182,0.182,,,,,,,,,0.182,,,,,,,,,,,,
Al0.5 Co1 Cr1 Cu1 Fe1 Ni1 Ti1,,0.077,,,,0.154,0.154,0.154,0.154,,,,,,,,,0.154,,,,,,,0.154,,,,,
Al0.5 Co1 Cr1 Cu1 Fe1 Ni1 Ti0.2,,0.088,,,,0.175,0.175,0.175,0.175,,,,,,,,,0.175,,,,,,,0.035,,,,,
Al0.5 Co1 Cr1 Cu1 Fe1 Ni1 Ti0.4,,0.085,,,,0.169,0.169,0.169,0.169,,,,,,,,,0.169,,,,,,,0.068,,,,,
Al0.5 Co1 Cr1 Cu1 Fe1 Ni1 Ti0.6,,0.082,,,,0.164,0.164,0.164,0.164,,,,,,,,,0.164,,,,,,,0.098,,,,,
Al0.5 Co1 Cr1 Cu1 Fe1 Ni1 Ti0.8,,0.079,,,,0.159,0.159,0.159,0.159,,,,,,,,,0.159,,,,,,,0.127,,,,,
Al0.417 Co0.833 Cr0.833 Cu0.833 Fe0.833 Ni0.833 Ti1,,0.075,,,,0.149,0.149,0.149,0.149,,,,,,,,,0.149,,,,,,,0.179,,,,,
Al0.357 Co0.714 Cr0.714 Cu0.714 Fe0.714 Ni0.714 Ti1,,0.072,,,,0.145,0.145,0.145,0.145,,,,,,,,,0.145,,,,,,,0.203,,,,,
Al0.312 Co0.625 Cr0.625 Cu0.625 Fe0.625 Ni0.625 Ti1,,0.07,,,,0.141,0.141,0.141,0.141,,,,,,,,,0.141,,,,,,,0.225,,,,,
Al0.278 Co0.556 Cr0.556 Cu0.556 Fe0.556 Ni0.556 Ti1,,0.069,,,,0.137,0.137,0.137,0.137,,,,,,,,,0.137,,,,,,,0.246,,,,,
Al0.25 Co0.5 Cr0.5 Cu0.5 Fe0.5 Ni0.5 Ti1,,0.067,,,,0.133,0.133,0.133,0.133,,,,,,,,,0.133,,,,,,,0.267,,,,,
Al0.5 Co1 Cr1 Cu1 Fe1 Ni1 V0.2,,0.088,,,,0.175,0.175,0.175,0.175,,,,,,,,,0.175,,,,,,,,0.035,,,,
Al0.5 Co1 Cr1 Cu1 Fe1 Ni1 V0.4,,0.085,,,,0.169,0.169,0.169,0.169,,,,,,,,,0.169,,,,,,,,0.068,,,,
Al0.5 Co1 Cr1 Cu1 Fe1 Ni1 V0.6,,0.082,,,,0.164,0.164,0.164,0.164,,,,,,,,,0.164,,,,,,,,0.098,,,,
Al0.5 Co1 Cr1 Cu1 Fe1 Ni1 V0.8,,0.079,,,,0.159,0.159,0.159,0.159,,,,,,,,,0.159,,,,,,,,0.127,,,,
Al0.5 Co1 Cr1 Cu1 Fe1 Ni1 V1,,0.077,,,,0.154,0.154,0.154,0.154,,,,,,,,,0.154,,,,,,,,0.154,,,,
Al0.417 Co0.833 Cr0.833 Cu0.833 Fe0.833 Ni0.833 V1,,0.075,,,,0.149,0.149,0.149,0.149,,,,,,,,,0.149,,,,,,,,0.179,,,,
Al0.357 Co0.714 Cr0.714 Cu0.714 Fe0.714 Ni0.714 V1,,0.072,,,,0.145,0.145,0.145,0.145,,,,,,,,,0.145,,,,,,,,0.203,,,,
Al0.312 Co0.625 Cr0.625 Cu0.625 Fe0.625 Ni0.625 V1,,0.07,,,,0.141,0.141,0.141,0.141,,,,,,,,,0.141,,,,,,,,0.225,,,,
Al0.278 Co0.556 Cr0.556 Cu0.556 Fe0.556 Ni0.556 V1,,0.069,,,,0.137,0.137,0.137,0.137,,,,,,,,,0.137,,,,,,,,0.246,,,,
Al0.25 Co0.5 Cr0.5 Cu0.5 Fe0.5 Ni0.5 V1,,0.067,,,,0.133,0.133,0.133,0.133,,,,,,,,,0.133,,,,,,,,0.267,,,,
Al1 Co1 Cr1 Cu1 Fe1 Ni1,,0.167,,,,0.167,0.167,0.167,0.167,,,,,,,,,0.167,,,,,,,,,,,,
Al1 Co1 Cu1 Fe1 Nd1 Ni1,,0.167,,,,0.167,,0.167,0.167,,,,,,,,0.167,0.167,,,,,,,,,,,,
Al1 Co1 Cu1 Fe1 Ni1,,0.2,,,,0.2,,0.2,0.2,,,,,,,,,0.2,,,,,,,,,,,,
Al1 Co1 Cu1 Fe1 Ni1 Si1,,0.167,,,,0.167,,0.167,0.167,,,,,,,,,0.167,,,,0.167,,,,,,,,
Al1 Co1 Cu1 Fe1 Ni1 Ti1,,0.167,,,,0.167,,0.167,0.167,,,,,,,,,0.167,,,,,,,0.167,,,,,
Al1 Co1 Cu1 Fe1 Ni1 Zr1,,0.167,,,,0.167,,0.167,0.167,,,,,,,,,0.167,,,,,,,,,,,,0.167
Al1 Co1 Cr1 Cu1 Fe1 Mn1 Ni1,,0.143,,,,0.143,0.143,0.143,0.143,,,,,0.143,,,,0.143,,,,,,,,,,,,
Al1 Co1 Cr1 Cu1 Fe1 Ni1 Ti1,,0.143,,,,0.143,0.143,0.143,0.143,,,,,,,,,0.143,,,,,,,0.143,,,,,
Al1 Co1 Cr1 Cu1 Fe1 Ni1 V1,,0.143,,,,0.143,0.143,0.143,0.143,,,,,,,,,0.143,,,,,,,,0.143,,,,
Al1 Co1 Cr1 Cu1 Ni1 Ti1,,0.167,,,,0.167,0.167,0.167,,,,,,,,,,0.167,,,,,,,0.167,,,,,
Al1 Co1 Cr1 Cu1 Ni1 Ti1 Y1,,0.143,,,,0.143,0.143,0.143,,,,,,,,,,0.143,,,,,,,0.143,,,0.143,,
Al1 Co1 Cr1 Cu1 Ni1 Ti1 Y0.5,,0.154,,,,0.154,0.154,0.154,,,,,,,,,,0.154,,,,,,,0.154,,,0.077,,
Al1 Co1 Cr1 Cu1 Ni1 Ti1 Y0.8,,0.147,,,,0.147,0.147,0.147,,,,,,,,,,0.147,,,,,,,0.147,,,0.118,,
Co1 Cu1 Fe1 Ni1,,,,,,0.25,,0.25,0.25,,,,,,,,,0.25,,,,,,,,,,,,
Co1 Cu1 Fe1 Ni1 Sn0.02,,,,,,0.249,,0.249,0.249,,,,,,,,,0.249,,,,,0.005,,,,,,,
Co1 Cu1 Fe1 Ni1 Sn0.04,,,,,,0.248,,0.248,0.248,,,,,,,,,0.248,,,,,0.01,,,,,,,
Co1 Cu1 Fe1 Ni1 Sn0.05,,,,,,0.247,,0.247,0.247,,,,,,,,,0.247,,,,,0.012,,,,,,,
Co1 Cu1 Fe1 Ni1 Sn0.07,,,,,,0.246,,0.246,0.246,,,,,,,,,0.246,,,,,0.017,,,,,,,
Co1 Cu1 Fe1 Ni1 Sn0.1,,,,,,0.244,,0.244,0.244,,,,,,,,,0.244,,,,,0.024,,,,,,,
Co1 Cu1 Fe1 Ni1 Sn0.2,,,,,,0.238,,0.238,0.238,,,,,,,,,0.238,,,,,0.048,,,,,,,
Co1 Cu1 Fe1 Ni1 Sn0.5,,,,,,0.222,,0.222,0.222,,,,,,,,,0.222,,,,,0.111,,,,,,,
Co1 Cu1 Fe1 Mn1 Ni1,,,,,,0.2,,0.2,0.2,,,,,0.2,,,,0.2,,,,,,,,,,,,
Co1 Cu1 Fe1 Mn1 Ni1 Sn0.03,,,,,,0.199,,0.199,0.199,,,,,0.199,,,,0.199,,,,,0.006,,,,,,,
Co1 Cu1 Fe1 Mn1 Ni1 Sn0.05,,,,,,0.198,,0.198,0.198,,,,,0.198,,,,0.198,,,,,0.01,,,,,,,
Co1 Cu1 Fe1 Mn1 Ni1 Sn0.08,,,,,,0.197,,0.197,0.197,,,,,0.197,,,,0.197,,,,,0.016,,,,,,,
Co1 Cu1 Fe1 Mn1 Ni1 Sn0.1,,,,,,0.196,,0.196,0.196,,,,,0.196,,,,0.196,,,,,0.02,,,,,,,
Co1 Cu1 Fe1 Mn1 Ni1 Sn0.2,,,,,,0.192,,0.192,0.192,,,,,0.192,,,,0.192,,,,,0.038,,,,,,,
Al1 Cr1 Cu1 Fe1 Ni0.6,,0.217,,,,,0.217,0.217,0.217,,,,,,,,,0.13,,,,,,,,,,,,
Al1 Cr1 Cu1 Fe1 Ni0.8,,0.208,,,,,0.208,0.208,0.208,,,,,,,,,0.167,,,,,,,,,,,,
Al0.833 Cr0.833 Cu0.833 Fe0.833 Ni1,,0.192,,,,,0.192,0.192,0.192,,,,,,,,,0.231,,,,,,,,,,,,
Al0.714 Cr0.714 Cu0.714 Fe0.714 Ni1,,0.185,,,,,0.185,0.185,0.185,,,,,,,,,0.259,,,,,,,,,,,,
Al0.1 Cr0.5 Cu0.5 Fe0.5 Ni1,,0.038,,,,,0.192,0.192,0.192,,,,,,,,,0.385,,,,,,,,,,,,
Al0.2 Cr0.5 Cu0.5 Fe0.5 Ni1,,0.074,,,,,0.185,0.185,0.185,,,,,,,,,0.37,,,,,,,,,,,,
Al0.3 Cr0.5 Cu0.5 Fe0.5 Ni1,,0.107,,,,,0.179,0.179,0.179,,,,,,,,,0.357,,,,,,,,,,,,
Al0.4 Cr0.5 Cu0.5 Fe0.5 Ni1,,0.138,,,,,0.172,0.172,0.172,,,,,,,,,0.345,,,,,,,,,,,,
Al0.6 Cr0.5 Cu0.5 Fe0.5 Ni1,,0.194,,,,,0.161,0.161,0.161,,,,,,,,,0.323,,,,,,,,,,,,
Al0.5 Cr0.5 Cu0.5 Fe0.5 Ni1,,0.167,,,,,0.167,0.167,0.167,,,,,,,,,0.333,,,,,,,,,,,,
Al1 Cr1 Cu1 Fe1 Ni1 Ti1,,0.167,,,,,0.167,0.167,0.167,,,,,,,,,0.167,,,,,,,0.167,,,,,
Al1 Cu0.889 Fe0.667 Ni0.889 Ti1,,0.225,,,,,,0.2,0.15,,,,,,,,,0.2,,,,,,,0.225,,,,,
Al1 Cu1 Fe1 Ni1 Ti1,,0.2,,,,,,0.2,0.2,,,,,,,,,0.2,,,,,,,0.2,,,,,
Al1 Cu1 Ni1 Ti1,,0.25,,,,,,0.25,,,,,,,,,,0.25,,,,,,,0.25,,,,,
Al1 Cu0.062 Li0.062 Mg0.062 Zn0.062,,0.801,,,,,,0.05,,,,0.05,0.05,,,,,,,,,,,,,,,,0.05,
Al1 Li0.062 Mg0.062 Sn0.062 Zn0.062,,0.801,,,,,,,,,,0.05,0.05,,,,,,,,,,0.05,,,,,,0.05,
Al1 Cu0.2 Li0.5 Mg1 Zn0.5,,0.312,,,,,,0.062,,,,0.156,0.312,,,,,,,,,,,,,,,,0.156,
Al1 Cu0.5 Li0.5 Mg1 Sn0.2,,0.312,,,,,,0.156,,,,0.156,0.312,,,,,,,,,,0.062,,,,,,,
Al1 Li0.5 Mg1 Sn0.2 Zn0.5,,0.312,,,,,,,,,,0.156,0.312,,,,,,,,,,0.062,,,,,,0.156,
Al1 Li1 Mg1 Sn1 Zn1,,0.2,,,,,,,,,,0.2,0.2,,,,,,,,,,0.2,,,,,,0.2,
Al0.667 Li0.667 Mg0.333 Sc0.667 Ti1,,0.2,,,,,,,,,,0.2,0.1,,,,,,,,0.2,,,,0.3,,,,,
Al0.214 Nb0.714 Ta0.571 Ti1 V0.143 Zr0.929,,0.06,,,,,,,,,,,,,,0.2,,,,,,,,0.16,0.28,0.04,,,,0.26
Al0.214 Nb0.714 Ta0.714 Ti1 Zr0.929,,0.06,,,,,,,,,,,,,,0.2,,,,,,,,0.2,0.28,,,,,0.26
Al0.4 Hf0.6 Nb1 Ta1 Ti1 Zr1,,0.08,,,,,,,,,0.12,,,,,0.2,,,,,,,,0.2,0.2,,,,,0.2
Al0.333 Nb0.667 Ta0.533 Ti1 V0.133 Zr0.667,,0.1,,,,,,,,,,,,,,0.2,,,,,,,,0.16,0.3,0.04,,,,0.2
Al1 Mo0.5 Nb1 Ta0.5 Ti1 Zr1,,0.2,,,,,,,,,,,,,0.1,0.2,,,,,,,,0.1,0.2,,,,,0.2
Al0.667 Nb1 Ta0.333 Ti1 Zr0.333,,0.2,,,,,,,,,,,,,,0.3,,,,,,,,0.1,0.3,,,,,0.1
Al0.3 Hf1 Nb1 Ta1 Ti1 Zr1,,0.057,,,,,,,,,0.189,,,,,0.189,,,,,,,,0.189,0.189,,,,,0.189
Al0.5 Hf1 Nb1 Ta1 Ti1 Zr1,,0.091,,,,,,,,,0.182,,,,,0.182,,,,,,,,0.182,0.182,,,,,0.182
Al0.75 Hf1 Nb1 Ta1 Ti1 Zr1,,0.13,,,,,,,,,0.174,,,,,0.174,,,,,,,,0.174,0.174,,,,,0.174
Al1 Hf1 Nb1 Ta1 Ti1 Zr1,,0.167,,,,,,,,,0.167,,,,,0.167,,,,,,,,0.167,0.167,,,,,0.167
Hf1 Nb1 Ta1 Ti1 Zr1,,,,,,,,,,,0.2,,,,,0.2,,,,,,,,0.2,0.2,,,,,0.2
Al0.25 Mo1 Nb1 Ti1 V1,,0.059,,,,,,,,,,,,,0.235,0.235,,,,,,,,,0.235,0.235,,,,
Al0.5 Mo1 Nb1 Ti1 V1,,0.111,,,,,,,,,,,,,0.222,0.222,,,,,,,,,0.222,0.222,,,,
Al0.75 Mo1 Nb1 Ti1 V1,,0.158,,,,,,,,,,,,,0.211,0.211,,,,,,,,,0.211,0.211,,,,
Al1 Mo1 Nb1 Ti1 V1,,0.2,,,,,,,,,,,,,0.2,0.2,,,,,,,,,0.2,0.2,,,,
Mo1 Nb1 Ti1 V1,,,,,,,,,,,,,,,0.25,0.25,,,,,,,,,0.25,0.25,,,,
Al0.25 Nb1 Ta1 Ti1 V1,,0.059,,,,,,,,,,,,,,0.235,,,,,,,,0.235,0.235,0.235,,,,
Al0.5 Nb1 Ta1 Ti1 V1,,0.111,,,,,,,,,,,,,,0.222,,,,,,,,0.222,0.222,0.222,,,,
Al1 Nb1 Ta1 Ti1 V1,,0.2,,,,,,,,,,,,,,0.2,,,,,,,,0.2,0.2,0.2,,,,
Nb1 Ta1 Ti1 V1,,,,,,,,,,,,,,,,0.25,,,,,,,,0.25,0.25,0.25,,,,
Al1 Nb1 Ti1 V1,,0.25,,,,,,,,,,,,,,0.25,,,,,,,,,0.25,0.25,,,,
Cr1 Mo0.5 Nb1 Ta0.5 Ti1 Zr1,,,,,,,0.2,,,,,,,,0.1,0.2,,,,,,,,0.1,0.2,,,,,0.2
Cr1 Nb1 Ti1 V1 Zr1,,,,,,,0.2,,,,,,,,,0.2,,,,,,,,,0.2,0.2,,,,0.2
Cr1 Nb1 Ti1 Zr1,,,,,,,0.25,,,,,,,,,0.25,,,,,,,,,0.25,,,,,0.25
Nb0.5 Ti0.5 V1 Zr0.5,,,,,,,,,,,,,,,,0.2,,,,,,,,,0.2,0.4,,,,0.2
Nb1 Ti1 V1 Zr1,,,,,,,,,,,,,,,,0.25,,,,,,,,,0.25,0.25,,,,0.25
Hf0.5 Mo0.5 Nb1 Ti1 Zr1,,,,,,,,,,,0.125,,,,0.125,0.25,,,,,,,,,0.25,,,,,0.25
C0.1 Hf0.5 Mo0.5 Nb1 Ti1 Zr1,,,,0.024,,,,,,,0.122,,,,0.122,0.244,,,,,,,,,0.244,,,,,0.244
C0.3 Hf0.5 Mo0.5 Nb1 Ti1 Zr1,,,,0.07,,,,,,,0.116,,,,0.116,0.233,,,,,,,,,0.233,,,,,0.233
Hf1 Mo0.25 Nb1 Ta1 Ti1 Zr1,,,,,,,,,,,0.19,,,,0.048,0.19,,,,,,,,0.19,0.19,,,,,0.19
Hf1 Mo0.5 Nb1 Ta1 Ti1 Zr1,,,,,,,,,,,0.182,,,,0.091,0.182,,,,,,,,0.182,0.182,,,,,0.182
Hf1 Mo0.75 Nb1 Ta1 Ti1 Zr1,,,,,,,,,,,0.174,,,,0.13,0.174,,,,,,,,0.174,0.174,,,,,0.174
Hf1 Mo1 Nb1 Ta1 Ti1 Zr1,,,,,,,,,,,0.167,,,,0.167,0.167,,,,,,,,0.167,0.167,,,,,0.167
Hf1 Mo1 Ta1 Ti1 Zr1,,,,,,,,,,,0.2,,,,0.2,,,,,,,,,0.2,0.2,,,,,0.2
Hf1 Mo1 Nb1 Ti1 Zr1,,,,,,,,,,,0.2,,,,0.2,0.2,,,,,,,,,0.2,,,,,0.2
Hf1 Nb1 Si0.5 Ti1 V1,,,,,,,,,,,0.222,,,,,0.222,,,,,,0.111,,,0.222,0.222,,,,
Hf0.333 Nb0.333 Ta0.333 Ti1 Zr0.667,,,,,,,,,,,0.125,,,,,0.125,,,,,,,,0.125,0.375,,,,,0.25
Hf1 Nb1 Ti1 Zr1,,,,,,,,,,,0.25,,,,,0.25,,,,,,,,,0.25,,,,,0.25
Mo1 Nb1 Ta1 V1,,,,,,,,,,,,,,,0.25,0.25,,,,,,,,0.25,,0.25,,,,
Mo1 Nb1 Ta1 V1 W1,,,,,,,,,,,,,,,0.2,0.2,,,,,,,,0.2,,0.2,0.2,,,
Mo1 Nb1 Ta1 W1,,,,,,,,,,,,,,,0.25,0.25,,,,,,,,0.25,,,0.25,,,
Mo0.3 Nb1 Ti1 V1 Zr1,,,,,,,,,,,,,,,0.07,0.233,,,,,,,,,0.233,0.233,,,,0.233
Mo0.5 Nb1 Ti1 V1 Zr1,,,,,,,,,,,,,,,0.111,0.222,,,,,,,,,0.222,0.222,,,,0.222
Mo0.7 Nb1 Ti1 V1 Zr1,,,,,,,,,,,,,,,0.149,0.213,,,,,,,,,0.213,0.213,,,,0.213
Mo1 Nb0.769 Ti0.769 V0.769 Zr0.769,,,,,,,,,,,,,,,0.245,0.189,,,,,,,,,0.189,0.189,,,,0.189
Mo1 Nb0.667 Ti0.667 V0.667 Zr0.667,,,,,,,,,,,,,,,0.273,0.182,,,,,,,,,0.182,0.182,,,,0.182
Mo1 Nb0.588 Ti0.588 V0.588 Zr0.588,,,,,,,,,,,,,,,0.298,0.175,,,,,,,,,0.175,0.175,,,,0.175
Mo1 Nb0.5 Ti0.5 V0.5 Zr0.5,,,,,,,,,,,,,,,0.333,0.167,,,,,,,,,0.167,0.167,,,,0.167
Mo1 Nb1 Ti1 V1 Zr1,,,,,,,,,,,,,,,0.2,0.2,,,,,,,,,0.2,0.2,,,,0.2
Mo1 Nb1 Ti1 V0.3 Zr1,,,,,,,,,,,,,,,0.233,0.233,,,,,,,,,0.233,0.07,,,,0.233
Mo0.1 Nb1 Ti1 V0.3 Zr1,,,,,,,,,,,,,,,0.029,0.294,,,,,,,,,0.294,0.088,,,,0.294
Mo0.3 Nb1 Ti1 V0.3 Zr1,,,,,,,,,,,,,,,0.083,0.278,,,,,,,,,0.278,0.083,,,,0.278
Mo0.5 Nb1 Ti1 V0.3 Zr1,,,,,,,,,,,,,,,0.132,0.263,,,,,,,,,0.263,0.079,,,,0.263
Mo0.7 Nb1 Ti1 V0.3 Zr1,,,,,,,,,,,,,,,0.175,0.25,,,,,,,,,0.25,0.075,,,,0.25
Mo1 Nb0.769 Ti0.769 V0.231 Zr0.769,,,,,,,,,,,,,,,0.283,0.217,,,,,,,,,0.217,0.065,,,,0.217
Mo1 Nb0.667 Ti0.667 V0.2 Zr0.667,,,,,,,,,,,,,,,0.312,0.208,,,,,,,,,0.208,0.062,,,,0.208
Nb1 Ti1 V0.3 Zr1,,,,,,,,,,,,,,,,0.303,,,,,,,,,0.303,0.091,,,,0.303
Mo1 Nb1 Ti1 V0.25 Zr1,,,,,,,,,,,,,,,0.235,0.235,,,,,,,,,0.235,0.059,,,,0.235
Mo1 Nb1 Ti1 V0.5 Zr1,,,,,,,,,,,,,,,0.222,0.222,,,,,,,,,0.222,0.111,,,,0.222
Mo1 Nb1 Ti1 V0.75 Zr1,,,,,,,,,,,,,,,0.211,0.211,,,,,,,,,0.211,0.158,,,,0.211
Mo0.667 Nb0.667 Ti0.667 V1 Zr0.667,,,,,,,,,,,,,,,0.182,0.182,,,,,,,,,0.182,0.273,,,,0.182
Mo0.5 Nb0.5 Ti0.5 V1 Zr0.5,,,,,,,,,,,,,,,0.167,0.167,,,,,,,,,0.167,0.333,,,,0.167
Mo0.333 Nb0.333 Ti0.333 V1 Zr0.333,,,,,,,,,,,,,,,0.143,0.143,,,,,,,,,0.143,0.429,,,,0.143
Mo1 Nb1 Ti1 Zr1,,,,,,,,,,,,,,,0.25,0.25,,,,,,,,,0.25,,,,,0.25
Co1 Fe1 Mo0.2 Ni1 V1,,,,,,0.238,,,0.238,,,,,,0.048,,,0.238,,,,,,,,0.238,,,,
Co1 Fe1 Mo0.4 Ni1 V1,,,,,,0.227,,,0.227,,,,,,0.091,,,0.227,,,,,,,,0.227,,,,
Co1 Fe1 Mo0.6 Ni1 V1,,,,,,0.217,,,0.217,,,,,,0.13,,,0.217,,,,,,,,0.217,,,,
Co1 Fe1 Mo0.8 Ni1 V1,,,,,,0.208,,,0.208,,,,,,0.167,,,0.208,,,,,,,,0.208,,,,
Co0.833 Fe0.833 Mo0.833 Ni1 V0.833,,,,,,0.192,,,0.192,,,,,,0.192,,,0.231,,,,,,,,0.192,,,,
Co0.714 Fe0.714 Mo0.714 Ni1 V0.714,,,,,,0.185,,,0.185,,,,,,0.185,,,0.259,,,,,,,,0.185,,,,
Co0.625 Fe0.625 Mo0.625 Ni1 V0.625,,,,,,0.179,,,0.179,,,,,,0.179,,,0.286,,,,,,,,0.179,,,,
Co0.556 Fe0.556 Mo0.556 Ni1 V0.556,,,,,,0.172,,,0.172,,,,,,0.172,,,0.31,,,,,,,,0.172,,,,
Co0.5 Fe0.5 Mo0.5 Ni1 V0.5,,,,,,0.167,,,0.167,,,,,,0.167,,,0.333,,,,,,,,0.167,,,,
Co1 Fe1 Mo1 Ni1 V1,,,,,,0.2,,,0.2,,,,,,0.2,,,0.2,,,,,,,,0.2,,,,
Co1 Fe1 Ni1 V1,,,,,,0.25,,,0.25,,,,,,,,,0.25,,,,,,,,0.25,,,,
Al0.125 Co1 Cr1 Cu1 Fe1 Mn1 Ni1 Ti1 V1,,0.015,,,,0.123,0.123,0.123,0.123,,,,,0.123,,,,0.123,,,,,,,0.123,0.123,,,,
Al0.25 Co1 Cr1 Cu1 Fe1 Mn1 Ni1 Ti1 V1,,0.03,,,,0.121,0.121,0.121,0.121,,,,,0.121,,,,0.121,,,,,,,0.121,0.121,,,,
Al0.667 Co1 Cr1 Cu1 Fe1 Mn1 Ni1 Ti1 V1,,0.077,,,,0.115,0.115,0.115,0.115,,,,,0.115,,,,0.115,,,,,,,0.115,0.115,,,,
Co1 Cr1 Cu1 Fe1 Mn1 Ni1 Ti1 V1,,,,,,0.125,0.125,0.125,0.125,,,,,0.125,,,,0.125,,,,,,,0.125,0.125,,,,
Cu1 Mn1 Ni1 Zn0.333,,,,,,,,0.3,,,,,,0.3,,,,0.3,,,,,,,,,,,0.1,
Cu1 Mn1 Ni1 Zn0.25,,,,,,,,0.308,,,,,,0.308,,,,0.308,,,,,,,,,,,0.077,
Al0.111 Cu1 Mn1 Ni1,,0.036,,,,,,0.321,,,,,,0.321,,,,0.321,,,,,,,,,,,,
Cu1 Mn1 Ni1 Sn0.111,,,,,,,,0.321,,,,,,0.321,,,,0.321,,,,,0.036,,,,,,,
Al0.053 Cu1 Mn1 Ni1,,0.017,,,,,,0.328,,,,,,0.328,,,,0.328,,,,,,,,,,,,
Cu1 Mn1 Ni1 Sn0.053,,,,,,,,0.328,,,,,,0.328,,,,0.328,,,,,0.017,,,,,,,
Al1 Co0.5 Cr0.5 Cu0.5 Fe0.5 Ni0.5,,0.286,,,,0.143,0.143,0.143,0.143,,,,,,,,,0.143,,,,,,,,,,,,
Al1 Cr1 Mo1 Nb1 Ti1,,0.2,,,,,0.2,,,,,,,,0.2,0.2,,,,,,,,,0.2,,,,,
Al1 Cr1 Mo1 Ti1,,0.25,,,,,0.25,,,,,,,,0.25,,,,,,,,,,0.25,,,,,
Al1 Mo1 Nb1 Ti1,,0.25,,,,,,,,,,,,,0.25,0.25,,,,,,,,,0.25,,,,,
Al1 Nb1 Ti1 V1 Zr1,,0.2,,,,,,,,,,,,,,0.2,,,,,,,,,0.2,0.2,,,,0.2
Al1 Nb1 Ti1 V1 Zr0.1,,0.244,,,,,,,,,,,,,,0.244,,,,,,,,,0.244,0.244,,,,0.024
Al1 Nb1 Ti1 V1 Zr0.25,,0.235,,,,,,,,,,,,,,0.235,,,,,,,,,0.235,0.235,,,,0.059
Al1 Nb1 Ti1 V1 Zr0.5,,0.222,,,,,,,,,,,,,,0.222,,,,,,,,,0.222,0.222,,,,0.111
Al0.667 Nb0.667 Ti0.667 V0.667 Zr1,,0.182,,,,,,,,,,,,,,0.182,,,,,,,,,0.182,0.182,,,,0.273
Co1 Cr1 Mo1 Nb1,,,,,,0.25,0.25,,,,,,,,0.25,0.25,,,,,,,,,,,,,,
Co1 Cr1 Mo1 Nb1 Ti1,,,,,,0.2,0.2,,,,,,,,0.2,0.2,,,,,,,,,0.2,,,,,
Co1 Cr1 Mo1 Nb1 Ti0.2,,,,,,0.238,0.238,,,,,,,,0.238,0.238,,,,,,,,,0.048,,,,,
Co1 Cr1 Mo1 Nb1 Ti0.4,,,,,,0.227,0.227,,,,,,,,0.227,0.227,,,,,,,,,0.091,,,,,
Co1 Cr1 Mo1 Nb1 Ti0.5,,,,,,0.222,0.222,,,,,,,,0.222,0.222,,,,,,,,,0.111,,,,,
Cr1 Hf1 Nb1 Ti1 Zr1,,,,,,,0.2,,,,0.2,,,,,0.2,,,,,,,,,0.2,,,,,0.2
Hf1 Nb1 Ti1 V1 Zr1,,,,,,,,,,,0.2,,,,,0.2,,,,,,,,,0.2,0.2,,,,0.2
Cr1 Ta1 Ti0.17 V1 W1,,,,,,,0.24,,,,,,,,,,,,,,,,,0.24,0.041,0.24,0.24,,,
Cr1 Ta1 Ti0.3 V1 W1,,,,,,,0.233,,,,,,,,,,,,,,,,,0.233,0.07,0.233,0.233,,,
Cr1 Ta1 V1 W1,,,,,,,0.25,,,,,,,,,,,,,,,,,0.25,,0.25,0.25,,,
Hf0.26 Nb1 Ta1 Ti0.578 Zr0.416,,,,,,,,,,,0.08,,,,,0.307,,,,,,,,0.307,0.178,,,,,0.128
Hf0.5 Mo0.5 Nb1 Si0.1 Ti1 Zr1,,,,,,,,,,,0.122,,,,0.122,0.244,,,,,,0.024,,,0.244,,,,,0.244
Hf0.5 Mo0.5 Nb1 Si0.3 Ti1 Zr1,,,,,,,,,,,0.116,,,,0.116,0.233,,,,,,0.07,,,0.233,,,,,0.233
Hf0.5 Mo0.5 Nb1 Si0.5 Ti1 Zr1,,,,,,,,,,,0.111,,,,0.111,0.222,,,,,,0.111,,,0.222,,,,,0.222
Hf0.5 Mo0.5 Nb1 Si0.7 Ti1 Zr1,,,,,,,,,,,0.106,,,,0.106,0.213,,,,,,0.149,,,0.213,,,,,0.213
Hf0.5 Mo0.5 Nb1 Si0.9 Ti1 Zr1,,,,,,,,,,,0.102,,,,0.102,0.204,,,,,,0.184,,,0.204,,,,,0.204
Hf0.5 Nb0.667 Ta0.333 Ti1 Zr0.833,,,,,,,,,,,0.15,,,,,0.2,,,,,,,,0.1,0.3,,,,,0.25
Hf1 Mo0.5 Nb1 Si0.3 Ti1 V0.5,,,,,,,,,,,0.233,,,,0.116,0.233,,,,,,0.07,,,0.233,0.116,,,,
Hf1 Mo0.5 Nb1 Si0.5 Ti1 V0.5,,,,,,,,,,,0.222,,,,0.111,0.222,,,,,,0.111,,,0.222,0.111,,,,
Hf1 Mo0.5 Nb1 Si0.7 Ti1 V0.5,,,,,,,,,,,0.213,,,,0.106,0.213,,,,,,0.149,,,0.213,0.106,,,,
Hf1 Mo0.5 Nb1 Ti1 V0.5,,,,,,,,,,,0.25,,,,0.125,0.25,,,,,,,,,0.25,0.125,,,,
Hf0.787 Nb0.142 Ta0.142 Ti1 Zr0.787,,,,,,,,,,,0.275,,,,,0.05,,,,,,,,0.05,0.35,,,,,0.275
Al0.25 Nb1 Ta1 Ti1 Zr1,,0.059,,,,,,,,,,,,,,0.235,,,,,,,,0.235,0.235,,,,,0.235
Al0.5 Mo0.5 Nb1 Ta0.5 Ti1 Zr1,,0.111,,,,,,,,,,,,,0.111,0.222,,,,,,,,0.111,0.222,,,,,0.222
Al1 Mo0.5 Nb1 Ta0.5 Ti1 Zr0.5,,0.222,,,,,,,,,,,,,0.111,0.222,,,,,,,,0.111,0.222,,,,,0.111
Al1 Nb1 Ta0.5 Ti1 Zr0.5,,0.25,,,,,,,,,,,,,,0.25,,,,,,,,0.125,0.25,,,,,0.125
Hf1 Nb1 Si0.5 Ti1 V1 Zr1,,,,,,,,,,,0.182,,,,,0.182,,,,,,0.091,,,0.182,0.182,,,,0.182
Al0.2 Mo1 Ta1 Ti1 V1,,0.048,,,,,,,,,,,,,0.238,,,,,,,,,0.238,0.238,0.238,,,,
Al0.6 Mo1 Ta1 Ti1 V1,,0.13,,,,,,,,,,,,,0.217,,,,,,,,,0.217,0.217,0.217,,,,
Al1 Mo1 Ta1 Ti1 V1,,0.2,,,,,,,,,,,,,0.2,,,,,,,,,0.2,0.2,0.2,,,,
Mo1 Ta1 Ti1 V1,,,,,,,,,,,,,,,0.25,,,,,,,,,0.25,0.25,0.25,,,,
Hf1 Nb1 Ta1 Zr1,,,,,,,,,,,0.25,,,,,0.25,,,,,,,,0.25,,,,,,0.25
Hf1 Ta0.4 Ti1 Zr1,,,,,,,,,,,0.294,,,,,,,,,,,,,0.118,0.294,,,,,0.294
Hf1 Ta0.5 Ti1 Zr1,,,,,,,,,,,0.286,,,,,,,,,,,,,0.143,0.286,,,,,0.286
Hf1 Ta0.6 Ti1 Zr1,,,,,,,,,,,0.278,,,,,,,,,,,,,0.167,0.278,,,,,0.278
Hf1 Ta1 Ti1 Zr1,,,,,,,,,,,0.25,,,,,,,,,,,,,0.25,0.25,,,,,0.25
Mo1 Nb1 Ta1 Ti0.25 W1,,,,,,,,,,,,,,,0.235,0.235,,,,,,,,0.235,0.059,,0.235,,,
Mo1 Nb1 Ta1 Ti0.5 W1,,,,,,,,,,,,,,,0.222,0.222,,,,,,,,0.222,0.111,,0.222,,,
Mo1 Nb1 Ta1 Ti0.75 W1,,,,,,,,,,,,,,,0.211,0.211,,,,,,,,0.211,0.158,,0.211,,,
Mo1 Nb1 Ta1 Ti1 W1,,,,,,,,,,,,,,,0.2,0.2,,,,,,,,0.2,0.2,,0.2,,,
Mo1 Nb1 Ta1 Ti1 V1,,,,,,,,,,,,,,,0.2,0.2,,,,,,,,0.2,0.2,0.2,,,,
Mo1 Nb1 Ta1 Ti1 V1 W1,,,,,,,,,,,,,,,0.167,0.167,,,,,,,,0.167,0.167,0.167,0.167,,,
Mo1 Nb1 Ta1 Ti1 Zr1,,,,,,,,,,,,,,,0.2,0.2,,,,,,,,0.2,0.2,,,,,0.2
Nb1 Ta1 Ti1 V1 W1,,,,,,,,,,,,,,,,0.2,,,,,,,,0.2,0.2,0.2,0.2,,,
Nb1 Ta1 V1 W1,,,,,,,,,,,,,,,,0.25,,,,,,,,0.25,,0.25,0.25,,,
Al0.25 Cr0.5 Nb0.5 Ti1 V0.25,,0.1,,,,,0.2,,,,,,,,,0.2,,,,,,,,,0.4,0.1,,,,
Al1 Cr0.5 Nb1 Ti1 V1,,0.222,,,,,0.111,,,,,,,,,0.222,,,,,,,,,0.222,0.222,,,,
Al0.667 Cr1 Nb0.667 Ti0.667 V0.667,,0.182,,,,,0.273,,,,,,,,,0.182,,,,,,,,,0.182,0.182,,,,
Al1 Cr1 Nb1 Ti1 V1,,0.2,,,,,0.2,,,,,,,,,0.2,,,,,,,,,0.2,0.2,,,,
Al0.3 Co1 Cr1 Fe1 Ni1,,0.07,,,,0.233,0.233,,0.233,,,,,,,,,0.233,,,,,,,,,,,,
Cr0.5 Fe1 Mn0.625 Ni0.375,,,,,,,0.2,,0.4,,,,,0.25,,,,0.15,,,,,,,,,,,,
Al0.05 Cr0.5 Fe1 Mn0.625 Ni0.375,,0.02,,,,,0.196,,0.392,,,,,0.245,,,,0.147,,,,,,,,,,,,
Al0.15 Cr0.5 Fe1 Mn0.625 Ni0.375,,0.057,,,,,0.189,,0.377,,,,,0.236,,,,0.142,,,,,,,,,,,,
Al0.25 Cr0.5 Fe1 Mn0.625 Ni0.375,,0.091,,,,,0.182,,0.364,,,,,0.227,,,,0.136,,,,,,,,,,,,
Al0.35 Cr0.5 Fe1 Mn0.625 Ni0.375,,0.123,,,,,0.175,,0.351,,,,,0.219,,,,0.132,,,,,,,,,,,,
Co0.2 Cr0.2 Fe1 Mn0.6,,,,,,0.1,0.1,,0.5,,,,,0.3,,,,,,,,,,,,,,,,
Al0.304 Co1 Cr1 Fe1 Ni1,,0.071,,,,0.232,0.232,,0.232,,,,,,,,,0.232,,,,,,,,,,,,
Al0.515 Cr0.515 Fe1 Ni1,,0.17,,,,,0.17,,0.33,,,,,,,,,0.33,,,,,,,,,,,,
Al0.511 Co0.511 Cr0.511 Fe0.511 Ni1,,0.168,,,,0.168,0.168,,0.168,,,,,,,,,0.329,,,,,,,,,,,,
Al0.465 Co0.465 Cr0.465 Fe0.465 Ni1,,0.163,,,,0.163,0.163,,0.163,,,,,,,,,0.35,,,,,,,,,,,,
Al0.451 Co0.451 Cr0.451 Fe0.451 Ni1,,0.161,,,,0.161,0.161,,0.161,,,,,,,,,0.357,,,,,,,,,,,,
Al0.343 Co0.514 Cr0.514 Fe1 Ni0.514,,0.119,,,,0.178,0.178,,0.347,,,,,,,,,0.178,,,,,,,,,,,,
Co1 Cr0.429 Fe0.571 Mo0.286 Ni0.571,,,,,,0.35,0.15,,0.2,,,,,,0.1,,,0.2,,,,,,,,,,,,
Co1 Cr1 Fe1 Mo0.083 Ni1,,,,,,0.245,0.245,,0.245,,,,,,0.02,,,0.245,,,,,,,,,,,,
Co1 Cr1 Fe1 Mo0.208 Ni1,,,,,,0.238,0.238,,0.238,,,,,,0.049,,,0.238,,,,,,,,,,,,
Co1 Cr1 Fe1 Mo0.304 Ni1,,,,,,0.232,0.232,,0.232,,,,,,0.071,,,0.232,,,,,,,,,,,,
C0.02 Co1 Cr1 Fe1 Mn1 Ni1,,,,0.004,,0.199,0.199,,0.199,,,,,0.199,,,,0.199,,,,,,,,,,,,
Al0.167 Co1 Cr1 Fe1 Ni1 Ti0.083,,0.039,,,,0.235,0.235,,0.235,,,,,,,,,0.235,,,,,,,0.02,,,,,
Al0.242 Co0.515 Cr0.515 Cu0.242 Fe0.515 Ni1,,0.08,,,,0.17,0.17,0.08,0.17,,,,,,,,,0.33,,,,,,,,,,,,
Al0.229 Co0.486 Cr0.4 Cu0.229 Fe0.486 Mo0.003 Ni1 Ti0.029 W0.003,,0.08,,,,0.17,0.14,0.08,0.17,,,,,,0.001,,,0.349,,,,,,,0.01,,0.001,,,
Al0.278 Co0.694 Cr0.222 Fe0.417 Ni1 Ti0.167,,0.1,,,,0.25,0.08,,0.15,,,,,,,,,0.36,,,,,,,0.06,,,,,
Al0.885 Cr1 Fe1 Ni1,,0.228,,,,,0.257,,0.257,,,,,,,,,0.257,,,,,,,,,,,,
Al1 Cr0.889 Fe0.889 Ni0.889,,0.273,,,,,0.242,,0.242,,,,,,,,,0.242,,,,,,,,,,,,
Al1 Cr0.828 Fe0.828 Ni0.828,,0.287,,,,,0.238,,0.238,,,,,,,,,0.238,,,,,,,,,,,,
Al1 Cr0.767 Fe0.767 Ni0.767,,0.303,,,,,0.232,,0.232,,,,,,,,,0.232,,,,,,,,,,,,
Al0.5 Cr0.5 Fe1 Ni1,,0.167,,,,,0.167,,0.333,,,,,,,,,0.333,,,,,,,,,,,,
Al0.545 Cr0.545 Fe0.515 Ni1 Ti0.273,,0.189,,,,,0.189,,0.179,,,,,,,,,0.347,,,,,,,0.095,,,,,
Cr1 Fe1 Ni1 V0.5 W1,,,,,,,0.222,,0.222,,,,,,,,,0.222,,,,,,,,0.111,0.222,,,
Al0.515 Cr0.515 Cu0.515 Fe0.515 Ni1,,0.168,,,,,0.168,0.168,0.168,,,,,,,,,0.327,,,,,,,,,,,,
Co1 Cr1 Fe1 Mn1 Ni1 V0.263,,,,,,0.19,0.19,,0.19,,,,,0.19,,,,0.19,,,,,,,,0.05,,,,
Co1 Cr1 Fe1 Mn1 Ni1 V0.765,,,,,,0.173,0.173,,0.173,,,,,0.173,,,,0.173,,,,,,,,0.133,,,,
Al0.108 Co0.514 Cr0.514 Cu0.108 Fe0.514 Ni1,,0.039,,,,0.186,0.186,0.039,0.186,,,,,,,,,0.363,,,,,,,,,,,,
Co1 Cr1 Fe1 Ni1 Ti0.2,,,,,,0.238,0.238,,0.238,,,,,,,,,0.238,,,,,,,0.048,,,,,
Al0.1 Co1 Cr1 Fe1 Ni1,,0.024,,,,0.244,0.244,,0.244,,,,,,,,,0.244,,,,,,,,,,,,
Al0.5 Cr0.5 Fe0.5 Ni1,,0.2,,,,,0.2,,0.2,,,,,,,,,0.4,,,,,,,,,,,,
Al0.429 Cr0.476 Fe0.476 Ni1,,0.18,,,,,0.2,,0.2,,,,,,,,,0.42,,,,,,,,,,,,
Al0.364 Cr0.455 Fe0.455 Ni1,,0.16,,,,,0.2,,0.2,,,,,,,,,0.44,,,,,,,,,,,,
Al0.304 Cr0.435 Fe0.435 Ni1,,0.14,,,,,0.2,,0.2,,,,,,,,,0.46,,,,,,,,,,,,
Al0.25 Cr0.417 Fe0.417 Ni1,,0.12,,,,,0.2,,0.2,,,,,,,,,0.48,,,,,,,,,,,,
Al0.476 Co0.476 Cr0.476 Fe0.476 Ni1,,0.164,,,,0.164,0.164,,0.164,,,,,,,,,0.344,,,,,,,,,,,,
Al0.3 Co1 Cr1 Fe1 Mn1 Ni1,,0.057,,,,0.189,0.189,,0.189,,,,,0.189,,,,0.189,,,,,,,,,,,,
Al0.5 Co1 Cr1 Fe1 Mn1 Ni1,,0.091,,,,0.182,0.182,,0.182,,,,,0.182,,,,0.182,,,,,,,,,,,,
Al0.7 Co1 Cr1 Fe1 Mn1 Ni1,,0.123,,,,0.175,0.175,,0.175,,,,,0.175,,,,0.175,,,,,,,,,,,,
Al1 Co1 Cr1 Fe1 Mn1 Ni1,,0.167,,,,0.167,0.167,,0.167,,,,,0.167,,,,0.167,,,,,,,,,,,,
Al0.6 Co1 Cr1 Fe1 Ni1,,0.13,,,,0.217,0.217,,0.217,,,,,,,,,0.217,,,,,,,,,,,,
Al0.9 Co1 Cr1 Fe1 Ni1,,0.184,,,,0.204,0.204,,0.204,,,,,,,,,0.204,,,,,,,,,,,,
Al0.9 Co1 Cr1 Fe1 Ni1 Ti0.5,,0.167,,,,0.185,0.185,,0.185,,,,,,,,,0.185,,,,,,,0.093,,,,,
Co1 Cr1 Fe1 Mn1 Mo0.042 Ni1,,,,,,0.198,0.198,,0.198,,,,,0.198,0.008,,,0.198,,,,,,,,,,,,
Co1 Cr1 Fe1 Mn1 Mo0.087 Ni1,,,,,,0.197,0.197,,0.197,,,,,0.197,0.017,,,0.197,,,,,,,,,,,,
Co1 Cr1 Fe1 Mn1 Mo0.136 Ni1,,,,,,0.195,0.195,,0.195,,,,,0.195,0.026,,,0.195,,,,,,,,,,,,
Co1 Cr1 Fe1 Mn1 Mo0.19 Ni1,,,,,,0.193,0.193,,0.193,,,,,0.193,0.037,,,0.193,,,,,,,,,,,,
Al1 Co1 Cr1 Ni1,,0.25,,,,0.25,0.25,,,,,,,,,,,0.25,,,,,,,,,,,,
C0.5 Co1 Cr1 Fe1 Mn1 Ni1,,,,0.091,,0.182,0.182,,0.182,,,,,0.182,,,,0.182,,,,,,,,,,,,
C1 Co1 Cr1 Fe1 Mn1 Ni1,,,,0.167,,0.167,0.167,,0.167,,,,,0.167,,,,0.167,,,,,,,,,,,,
Co1 Cr0.588 Fe0.176 Mo0.176 Ni1,,,,,,0.34,0.2,,0.06,,,,,,0.06,,,0.34,,,,,,,,,,,,
Cr1 Mo1 Nb1 Ta1 V1 W1,,,,,,,0.167,,,,,,,,0.167,0.167,,,,,,,,0.167,,0.167,0.167,,,
Al1 Co0.667 Cr0.667 Cu0.667 Fe0.667 Ni0.667,,0.231,,,,0.154,0.154,0.154,0.154,,,,,,,,,0.154,,,,,,,,,,,,
Co1 Ni1 V1,,,,,,0.333,,,,,,,,,,,,0.333,,,,,,,,0.333,,,,
Al0.544 C0.001 Co0.69 Fe1 Ni0.69,,0.186,,0.0,,0.236,,,0.342,,,,,,,,,0.236,,,,,,,,,,,,
Co0.5 Cr0.5 Fe1 Ni1,,,,,,0.167,0.167,,0.333,,,,,,,,,0.333,,,,,,,,,,,,
Co0.875 Cr0.625 Fe1 Ni1,,,,,,0.25,0.179,,0.286,,,,,,,,,0.286,,,,,,,,,,,,
Co1 Cr0.556 Fe0.667 Ni0.667,,,,,,0.346,0.192,,0.231,,,,,,,,,0.231,,,,,,,,,,,,
Co1 Cr0.455 Fe0.364 Ni0.364,,,,,,0.458,0.208,,0.167,,,,,,,,,0.167,,,,,,,,,,,,
Co1 Cr0.385 Fe0.154 Ni0.154,,,,,,0.591,0.227,,0.091,,,,,,,,,0.091,,,,,,,,,,,,
Al1 Co0.5 Cr1 Fe0.147 Ni0.294,,0.34,,,,0.17,0.34,,0.05,,,,,,,,,0.1,,,,,,,,,,,,
Al1 Co0.298 Cr0.319 Cu0.106 Fe0.277 Ni0.128,,0.47,,,,0.14,0.15,0.05,0.13,,,,,,,,,0.06,,,,,,,,,,,,
Al1 Co0.289 Cr0.158 Cu0.237 Fe0.816 Ni0.132,,0.38,,,,0.11,0.06,0.09,0.31,,,,,,,,,0.05,,,,,,,,,,,,
Al1 Co0.278 Cr0.861 Cu0.167 Fe0.25 Ni0.222,,0.36,,,,0.1,0.31,0.06,0.09,,,,,,,,,0.08,,,,,,,,,,,,
Al1 Co0.395 Cr0.349 Fe0.326 Ni0.256,,0.43,,,,0.17,0.15,,0.14,,,,,,,,,0.11,,,,,,,,,,,,
Al1 Co0.255 Cr0.255 Cu0.106 Fe0.277 Ni0.234,,0.47,,,,0.12,0.12,0.05,0.13,,,,,,,,,0.11,,,,,,,,,,,,
Al1 Co0.442 Cr0.442 Fe0.256 Ni0.186,,0.43,,,,0.19,0.19,,0.11,,,,,,,,,0.08,,,,,,,,,,,,
Al1 Co0.256 Cr0.795 Cu0.128 Fe0.205 Ni0.179,,0.39,,,,0.1,0.31,0.05,0.08,,,,,,,,,0.07,,,,,,,,,,,,
Al1 Co0.277 Cr0.277 Cu0.106 Fe0.255 Ni0.213,,0.47,,,,0.13,0.13,0.05,0.12,,,,,,,,,0.1,,,,,,,,,,,,
Al1 Co0.465 Cr0.512 Fe0.186 Ni0.163,,0.43,,,,0.2,0.22,,0.08,,,,,,,,,0.07,,,,,,,,,,,,
Al1 Co0.298 Cr0.404 Cu0.106 Fe0.213 Ni0.106,,0.47,,,,0.14,0.19,0.05,0.1,,,,,,,,,0.05,,,,,,,,,,,,
Al1 Co0.465 Cr0.442 Fe0.209 Ni0.209,,0.43,,,,0.2,0.19,,0.09,,,,,,,,,0.09,,,,,,,,,,,,
Al1 Co0.304 Cr0.5 Cu0.109 Fe0.152 Ni0.109,,0.46,,,,0.14,0.23,0.05,0.07,,,,,,,,,0.05,,,,,,,,,,,,
Al1 Co0.318 Cr0.5 Cu0.114 Fe0.205 Ni0.136,,0.44,,,,0.14,0.22,0.05,0.09,,,,,,,,,0.06,,,,,,,,,,,,
Al1 Co0.442 Cr0.558 Fe0.186 Ni0.14,,0.43,,,,0.19,0.24,,0.08,,,,,,,,,0.06,,,,,,,,,,,,
Al1 Co0.419 Cr0.558 Fe0.233 Ni0.116,,0.43,,,,0.18,0.24,,0.1,,,,,,,,,0.05,,,,,,,,,,,,
Al1 Co0.298 Cr0.426 Cu0.106 Fe0.191 Ni0.106,,0.47,,,,0.14,0.2,0.05,0.09,,,,,,,,,0.05,,,,,,,,,,,,
Al1 Co0.558 Cr0.512 Fe0.116 Ni0.14,,0.43,,,,0.24,0.22,,0.05,,,,,,,,,0.06,,,,,,,,,,,,
Al1 Co0.581 Cr0.512 Fe0.116 Ni0.116,,0.43,,,,0.25,0.22,,0.05,,,,,,,,,0.05,,,,,,,,,,,,
Al1 Co0.558 Cr0.535 Fe0.116 Ni0.116,,0.43,,,,0.24,0.23,,0.05,,,,,,,,,0.05,,,,,,,,,,,,
Al1 Co0.535 Cr0.488 Fe0.186 Ni0.116,,0.43,,,,0.23,0.21,,0.08,,,,,,,,,0.05,,,,,,,,,,,,
Al1 Co0.255 Cr0.426 Cu0.106 Fe0.234 Ni0.106,,0.47,,,,0.12,0.2,0.05,0.11,,,,,,,,,0.05,,,,,,,,,,,,
Al1 Co0.349 Cr0.395 Cu0.116 Fe0.326 Ni0.14,,0.43,,,,0.15,0.17,0.05,0.14,,,,,,,,,0.06,,,,,,,,,,,,
Al1 Co0.238 Cr0.714 Cu0.119 Fe0.167 Ni0.143,,0.42,,,,0.1,0.3,0.05,0.07,,,,,,,,,0.06,,,,,,,,,,,,
Al1 Co0.234 Cr0.468 Cu0.106 Fe0.213 Ni0.106,,0.47,,,,0.11,0.22,0.05,0.1,,,,,,,,,0.05,,,,,,,,,,,,
Al1 Co0.277 Cr0.426 Cu0.106 Fe0.213 Ni0.106,,0.47,,,,0.13,0.2,0.05,0.1,,,,,,,,,0.05,,,,,,,,,,,,
Al0.853 Co0.647 Cr1 Fe0.147 Ni0.294,,0.29,,,,0.22,0.34,,0.05,,,,,,,,,0.1,,,,,,,,,,,,
Al1 Co0.149 Cr0.34 Cu0.191 Fe0.34 Ni0.106,,0.47,,,,0.07,0.16,0.09,0.16,,,,,,,,,0.05,,,,,,,,,,,,
Al1 Co0.326 Cr0.488 Cu0.116 Fe0.279 Ni0.116,,0.43,,,,0.14,0.21,0.05,0.12,,,,,,,,,0.05,,,,,,,,,,,,
Al1 Co0.383 Cr0.319 Cu0.106 Fe0.213 Ni0.106,,0.47,,,,0.18,0.15,0.05,0.1,,,,,,,,,0.05,,,,,,,,,,,,
Al1 Co0.426 Cr0.383 Cu0.106 Fe0.106 Ni0.106,,0.47,,,,0.2,0.18,0.05,0.05,,,,,,,,,0.05,,,,,,,,,,,,
Al1 Co0.419 Cr0.465 Fe0.279 Ni0.163,,0.43,,,,0.18,0.2,,0.12,,,,,,,,,0.07,,,,,,,,,,,,
Al1 Co0.362 Cr0.34 Cu0.106 Fe0.213 Ni0.106,,0.47,,,,0.17,0.16,0.05,0.1,,,,,,,,,0.05,,,,,,,,,,,,
Al1 Co0.457 Cr0.391 Cu0.109 Fe0.109 Ni0.109,,0.46,,,,0.21,0.18,0.05,0.05,,,,,,,,,0.05,,,,,,,,,,,,
Al1 Co0.512 Cr0.512 Fe0.186 Ni0.116,,0.43,,,,0.22,0.22,,0.08,,,,,,,,,0.05,,,,,,,,,,,,
Al1 Co0.512 Cr0.535 Fe0.163 Ni0.116,,0.43,,,,0.22,0.23,,0.07,,,,,,,,,0.05,,,,,,,,,,,,
Al1 Co0.465 Cr0.488 Fe0.209 Ni0.163,,0.43,,,,0.2,0.21,,0.09,,,,,,,,,0.07,,,,,,,,,,,,
Al1 Co0.512 Cr0.581 Fe0.116 Ni0.116,,0.43,,,,0.22,0.25,,0.05,,,,,,,,,0.05,,,,,,,,,,,,
Al1 Co0.404 Cr0.404 Cu0.106 Fe0.106 Ni0.106,,0.47,,,,0.19,0.19,0.05,0.05,,,,,,,,,0.05,,,,,,,,,,,,
Al1 Co0.674 Cr0.419 Fe0.116 Ni0.116,,0.43,,,,0.29,0.18,,0.05,,,,,,,,,0.05,,,,,,,,,,,,
Co0.986 Cr0.952 Fe0.933 Mn0.914 Ni1,,,,,,0.206,0.199,,0.195,,,,,0.191,,,,0.209,,,,,,,,,,,,
Mo1 Nb1 Ti1,,,,,,,,,,,,,,,0.333,0.333,,,,,,,,,0.333,,,,,
Nb1 Ta0.3 Ti1 Zr1,,,,,,,,,,,,,,,,0.303,,,,,,,,0.091,0.303,,,,,0.303
Nb1 Ti1 Zr1,,,,,,,,,,,,,,,,0.333,,,,,,,,,0.333,,,,,0.333
Al0.24 Nb1 Ti1 V1 Zr1,,0.057,,,,,,,,,,,,,,0.236,,,,,,,,,0.236,0.236,,,,0.236
Cr1 Nb0.333 Ti0.333 Zr0.333,,,,,,,0.5,,,,,,,,,0.167,,,,,,,,,0.167,,,,,0.167
Nb1 Re0.3 Ti1 Zr1,,,,,,,,,,,,,,,,0.303,,,,0.091,,,,,0.303,,,,,0.303
Nb1 Ta1 Ti1 V1 Zr1,,,,,,,,,,,,,,,,0.2,,,,,,,,0.2,0.2,0.2,,,,0.2
Cr0.286 Mo0.476 Nb1 Ta0.024 Ti0.31 V0.286,,,,,,,0.12,,,,,,,,0.2,0.42,,,,,,,,0.01,0.13,0.12,,,,
Co1 Cr0.053 Ni1,,,,,,0.487,0.026,,,,,,,,,,,0.487,,,,,,,,,,,,
Co1 Cr0.25 Ni1,,,,,,0.444,0.111,,,,,,,,,,,0.444,,,,,,,,,,,,
Co0.25 Cr1 Ni1,,,,,,0.111,0.444,,,,,,,,,,,0.444,,,,,,,,,,,,
Al1 Co1 Ni1 Ti1,,0.25,,,,0.25,,,,,,,,,,,,0.25,,,,,,,0.25,,,,,
Al1 Fe1 Ni1 Ti1,,0.25,,,,,,,0.25,,,,,,,,,0.25,,,,,,,0.25,,,,,
Al1 Co1 Fe1 Ni1 Ti1,,0.2,,,,0.2,,,0.2,,,,,,,,,0.2,,,,,,,0.2,,,,,
Co0.5 Fe0.5 Mo0.1 Ni1 V0.25,,,,,,0.213,,,0.213,,,,,,0.043,,,0.426,,,,,,,,0.106,,,,
Co0.318 Cr0.227 Fe1 Mo0.091 Ni0.182,,,,,,0.175,0.125,,0.55,,,,,,0.05,,,0.1,,,,,,,,,,,,
Co0.327 Cr0.227 Fe1 Mo0.136 Ni0.127,,,,,,0.18,0.125,,0.55,,,,,,0.075,,,0.07,,,,,,,,,,,,
Mo1 Nb1 Re0.5 W1,,,,,,,,,,,,,,,0.286,0.286,,,,0.143,,,,,,,0.286,,,
C0.2 Mo1 Nb1 Re0.5 Ta0.2 W1,,,,0.051,,,,,,,,,,,0.256,0.256,,,,0.128,,,,0.051,,,0.256,,,
C0.4 Mo1 Nb1 Re0.5 Ta0.4 W1,,,,0.093,,,,,,,,,,,0.233,0.233,,,,0.116,,,,0.093,,,0.233,,,
C0.5 Mo1 Nb1 Re0.5 Ta0.5 W1,,,,0.111,,,,,,,,,,,0.222,0.222,,,,0.111,,,,0.111,,,0.222,,,
C0.6 Mo1 Nb1 Re0.5 Ta0.6 W1,,,,0.128,,,,,,,,,,,0.213,0.213,,,,0.106,,,,0.128,,,0.213,,,
Co0.286 Cr0.429 Fe1 Mn0.143 Ni0.714 V0.286,,,,,,0.1,0.15,,0.35,,,,,0.05,,,,0.25,,,,,,,,0.1,,,,
Al1 Co0.556 Cr0.556 Fe0.556 Ni0.556 Ti0.111,,0.3,,,,0.167,0.167,,0.167,,,,,,,,,0.167,,,,,,,0.033,,,,,
Al1 Co0.667 Cr0.667 Fe0.667 Ni0.667 Ti0.333,,0.25,,,,0.167,0.167,,0.167,,,,,,,,,0.167,,,,,,,0.083,,,,,
Al1 Co0.833 Cr0.833 Fe0.833 Ni0.833 Ti0.667,,0.2,,,,0.167,0.167,,0.167,,,,,,,,,0.167,,,,,,,0.133,,,,,
Al0.667 Co0.833 Cr0.833 Fe0.833 Ni0.833 Ti1,,0.133,,,,0.167,0.167,,0.167,,,,,,,,,0.167,,,,,,,0.2,,,,,
Al0.8 Co1 Cr1 Fe1 Ni1 Ti0.2,,0.16,,,,0.2,0.2,,0.2,,,,,,,,,0.2,,,,,,,0.04,,,,,
Al0.5 Co1 Cr1 Fe1 Ni1 Ti0.5,,0.1,,,,0.2,0.2,,0.2,,,,,,,,,0.2,,,,,,,0.1,,,,,
Al1 Co0.25 Cr1 Fe1 Ni1,,0.235,,,,0.059,0.235,,0.235,,,,,,,,,0.235,,,,,,,,,,,,
Al1 Co0.5 Cr1 Fe1 Ni1,,0.222,,,,0.111,0.222,,0.222,,,,,,,,,0.222,,,,,,,,,,,,
Al1 Co0.75 Cr1 Fe1 Ni1,,0.211,,,,0.158,0.211,,0.211,,,,,,,,,0.211,,,,,,,,,,,,
Co1 Cr1 Fe1 Mn1,,,,,,0.25,0.25,,0.25,,,,,0.25,,,,,,,,,,,,,,,,
Hf1 Nb1 Ta1 Ti1 W1 Zr1,,,,,,,,,,,0.167,,,,,0.167,,,,,,,,0.167,0.167,,0.167,,,0.167
Hf1 Mo1 Nb1 Ta1 Ti1 W1 Zr1,,,,,,,,,,,0.143,,,,0.143,0.143,,,,,,,,0.143,0.143,,0.143,,,0.143
Co1 Cr1 Fe1 Ni1 W0.2,,,,,,0.238,0.238,,0.238,,,,,,,,,0.238,,,,,,,,,0.048,,,
Co1 Cr1 Fe1 Ni1 W0.5,,,,,,0.222,0.222,,0.222,,,,,,,,,0.222,,,,,,,,,0.111,,,
Cr1 Fe1 Mo1 Nb1 V1,,,,,,,0.2,,0.2,,,,,,0.2,0.2,,,,,,,,,,0.2,,,,
Cr1 Fe1 Mo1 Nb1 Ti1,,,,,,,0.2,,0.2,,,,,,0.2,0.2,,,,,,,,,0.2,,,,,
Fe1 Mo1 Nb1 Ti1 V1,,,,,,,,,0.2,,,,,,0.2,0.2,,,,,,,,,0.2,0.2,,,,
Al0.15 Cr0.5 Cu0.25 Fe0.5 Ni1,,0.062,,,,,0.208,0.104,0.208,,,,,,,,,0.417,,,,,,,,,,,,
Co1 Cr1 Fe1 Ni1 Ti0.3,,,,,,0.233,0.233,,0.233,,,,,,,,,0.233,,,,,,,0.07,,,,,
Co0.333 Cr0.667 Fe0.667 Ni1 Ti0.2,,,,,,0.116,0.233,,0.233,,,,,,,,,0.349,,,,,,,0.07,,,,,
Cr0.5 Fe0.5 Ni1 Ti0.15,,,,,,,0.233,,0.233,,,,,,,,,0.465,,,,,,,0.07,,,,,
Nb1 Ta1 Ti1,,,,,,,,,,,,,,,,0.333,,,,,,,,0.333,0.333,,,,,
Al1 Nb1 Ta1 Ti1,,0.25,,,,,,,,,,,,,,0.25,,,,,,,,0.25,0.25,,,,,
Mo1 Nb1 Ta1 Ti1,,,,,,,,,,,,,,,0.25,0.25,,,,,,,,0.25,0.25,,,,,
Nb1 Ta1 Ti1 W1,,,,,,,,,,,,,,,,0.25,,,,,,,,0.25,0.25,,0.25,,,
Hf1 Nb1 Ta1 Ti1,,,,,,,,,,,0.25,,,,,0.25,,,,,,,,0.25,0.25,,,,,
Cr1 Mo1 Nb1 Ti1,,,,,,,0.25,,,,,,,,0.25,0.25,,,,,,,,,0.25,,,,,
Cr1 Mo1 Ta1 Ti1,,,,,,,0.25,,,,,,,,0.25,,,,,,,,,0.25,0.25,,,,,
Hf0.25 Ti1 V0.5 Zr0.5,,,,,,,,,,,0.111,,,,,,,,,,,,,,0.444,0.222,,,,0.222
Hf0.25 Nb0.125 Ti1 V0.5 Zr0.5,,,,,,,,,,,0.105,,,,,0.053,,,,,,,,,0.421,0.211,,,,0.211
Hf0.25 Nb0.25 Ti1 V0.5 Zr0.5,,,,,,,,,,,0.1,,,,,0.1,,,,,,,,,0.4,0.2,,,,0.2
Hf0.25 Nb0.375 Ti1 V0.5 Zr0.5,,,,,,,,,,,0.095,,,,,0.143,,,,,,,,,0.381,0.19,,,,0.19
Hf0.25 Nb0.5 Ti1 V0.5 Zr0.5,,,,,,,,,,,0.091,,,,,0.182,,,,,,,,,0.364,0.182,,,,0.182
Co0.476 Cr0.476 Fe0.476 Nb0.095 Ni1,,,,,,0.189,0.189,,0.189,,,,,,,0.038,,0.396,,,,,,,,,,,,
Co0.476 Cr0.476 Fe0.476 Nb0.19 Ni1,,,,,,0.182,0.182,,0.182,,,,,,,0.073,,0.382,,,,,,,,,,,,
C0.053 Co1 Cr1 Fe1 Mn1 Ni1,,,,0.01,,0.198,0.198,,0.198,,,,,0.198,,,,0.198,,,,,,,,,,,,
Cr1 Mo1 Nb1 Ti1 W1,,,,,,,0.2,,,,,,,,0.2,0.2,,,,,,,,,0.2,,0.2,,,
Cr1 Fe1 Mn1 Ni1,,,,,,,0.25,,0.25,,,,,0.25,,,,0.25,,,,,,,,,,,,
Co0.25 Cr0.25 Fe1 Mn1,,,,,,0.1,0.1,,0.4,,,,,0.4,,,,,,,,,,,,,,,,
C0.041 Co1 Cr1 Fe1 Mn1 Nb0.041 Ni1,,,,0.008,,0.197,0.197,,0.197,,,,,0.197,,0.008,,0.197,,,,,,,,,,,,
Al0.5 Nb1 Ta0.5 Ti1 Zr1,,0.125,,,,,,,,,,,,,,0.25,,,,,,,,0.125,0.25,,,,,0.25
Mo1 Nb1 Si0.25 Ta1 W1,,,,,,,,,,,,,,,0.235,0.235,,,,,,0.059,,0.235,,,0.235,,,
Mo1 Nb1 Si0.5 Ta1 W1,,,,,,,,,,,,,,,0.222,0.222,,,,,,0.111,,0.222,,,0.222,,,
Mo1 Nb1 Si0.75 Ta1 W1,,,,,,,,,,,,,,,0.211,0.211,,,,,,0.158,,0.211,,,0.211,,,
C0.1 Co1 Cr1 Fe1 Mn1 Ni1 Ti0.1,,,,0.019,,0.192,0.192,,0.192,,,,,0.192,,,,0.192,,,,,,,0.019,,,,,
Al0.5 Co1 Fe1 Ni1 Ti0.5,,0.125,,,,0.25,,,0.25,,,,,,,,,0.25,,,,,,,0.125,,,,,
Al0.5 Co1 Cr1 Fe1 Mn1 Ni1 Ta0.2,,0.088,,,,0.175,0.175,,0.175,,,,,0.175,,,,0.175,,,,,,0.035,,,,,,
Al0.5 Co1 Cr1 Fe1 Mn1 Ni1 Ta0.4,,0.085,,,,0.169,0.169,,0.169,,,,,0.169,,,,0.169,,,,,,0.068,,,,,,
Al0.55 Co1 Cr1 Fe1 Mn1 Ni1 Ta0.6,,0.089,,,,0.163,0.163,,0.163,,,,,0.163,,,,0.163,,,,,,0.098,,,,,,
Co1 Cr1 Fe1 Mn1 Ni1 Ta0.2,,,,,,0.192,0.192,,0.192,,,,,0.192,,,,0.192,,,,,,0.038,,,,,,
Co1 Cr1 Fe1 Mn1 Ni1 Ta0.4,,,,,,0.185,0.185,,0.185,,,,,0.185,,,,0.185,,,,,,0.074,,,,,,
Co1 Cr1 Fe1 Mn1 Ni1 Ta0.6,,,,,,0.179,0.179,,0.179,,,,,0.179,,,,0.179,,,,,,0.107,,,,,,
Al0.3 Co1 Cr1 Fe1 Mo0.1 Ni1,,0.068,,,,0.227,0.227,,0.227,,,,,,0.023,,,0.227,,,,,,,,,,,,
Al0.143 Cr0.343 Fe1 Mn0.8 Ni0.571,,0.05,,,,,0.12,,0.35,,,,,0.28,,,,0.2,,,,,,,,,,,,
Al0.286 Cr0.343 Fe1 Mn0.657 Ni0.571,,0.1,,,,,0.12,,0.35,,,,,0.23,,,,0.2,,,,,,,,,,,,
Co1 Cr1 Fe1 Mo0.15 Ni1,,,,,,0.241,0.241,,0.241,,,,,,0.036,,,0.241,,,,,,,,,,,,
Co0.139 Cr0.446 Cu0.99 Ni1 Si0.277,,,,,,0.049,0.156,0.347,,,,,,,,,,0.351,,,,0.097,,,,,,,,
Al1 Co1 Cr0.091 Nb0.727 W0.212,,0.33,,,,0.33,0.03,,,,,,,,,0.24,,,,,,,,,,,0.07,,,
Co1 Cr0.917 Ni1 Ta0.5 Ti0.75,,,,,,0.24,0.22,,,,,,,,,,,0.24,,,,,,0.12,0.18,,,,,
Al0.947 Co0.158 Mo1 Ni0.289 W0.237,,0.36,,,,0.06,,,,,,,,,0.38,,,0.11,,,,,,,,,0.09,,,
Co0.043 Nb0.638 Ni1 Ta0.255 Ti0.191,,,,,,0.02,,,,,,,,,,0.3,,0.47,,,,,,0.12,0.09,,,,,
Co0.273 Cr0.477 Nb0.477 Ni0.045 Ti1,,,,,,0.12,0.21,,,,,,,,,0.21,,0.02,,,,,,,0.44,,,,,
Co1 Cr0.487 Nb0.231 Ta0.026 Ti0.821,,,,,,0.39,0.19,,,,,,,,,0.09,,,,,,,,0.01,0.32,,,,,
Co0.564 Nb0.795 Ta0.103 Ti1 W0.103,,,,,,0.22,,,,,,,,,,0.31,,,,,,,,0.04,0.39,,0.04,,,
Al1 Co1 Cu1 Fe1 Ni0.5,,0.222,,,,0.222,,0.222,0.222,,,,,,,,,0.111,,,,,,,,,,,,
Al1 Co1 Cu1 Fe1 Ni0.8,,0.208,,,,0.208,,0.208,0.208,,,,,,,,,0.167,,,,,,,,,,,,
Al0.667 Co0.667 Cu0.667 Fe0.667 Ni1,,0.182,,,,0.182,,0.182,0.182,,,,,,,,,0.273,,,,,,,,,,,,
Al0.5 Co0.5 Cu0.5 Fe0.5 Ni1,,0.167,,,,0.167,,0.167,0.167,,,,,,,,,0.333,,,,,,,,,,,,
Al0.333 Co0.333 Cu0.333 Fe0.333 Ni1,,0.143,,,,0.143,,0.143,0.143,,,,,,,,,0.429,,,,,,,,,,,,
Al0.5 Cr1 Fe1 Mn1 Ni1,,0.111,,,,,0.222,,0.222,,,,,0.222,,,,0.222,,,,,,,,,,,,
Al0.6 Cr1 Fe1 Mn1 Ni1,,0.13,,,,,0.217,,0.217,,,,,0.217,,,,0.217,,,,,,,,,,,,
Al0.7 Cr1 Fe1 Mn1 Ni1,,0.149,,,,,0.213,,0.213,,,,,0.213,,,,0.213,,,,,,,,,,,,
Al0.8 Cr1 Fe1 Mn1 Ni1,,0.167,,,,,0.208,,0.208,,,,,0.208,,,,0.208,,,,,,,,,,,,
Co1 Cr0.2 Fe1 Ni1 Si0.2,,,,,,0.294,0.059,,0.294,,,,,,,,,0.294,,,,0.059,,,,,,,,
Al1 Cu0.077 Fe0.077 Mg0.077 Si0.231 Zn0.077,,0.65,,,,,,0.05,0.05,,,,0.05,,,,,,,,,0.15,,,,,,,0.05,
Al1 Cu0.077 Mg0.077 Ni0.077 Si0.231 Zn0.077,,0.65,,,,,,0.05,,,,,0.05,,,,,0.05,,,,0.15,,,,,,,0.05,
Al1 Cr0.077 Cu0.077 Mg0.077 Si0.231 Zn0.077,,0.65,,,,,0.05,0.05,,,,,0.05,,,,,,,,,0.15,,,,,,,0.05,
Al1 Cu0.077 Mg0.077 Mn0.077 Si0.231 Zn0.077,,0.65,,,,,,0.05,,,,,0.05,0.05,,,,,,,,0.15,,,,,,,0.05,
Al1 Cu0.077 Mg0.077 Si0.231 Zn0.077 Zr0.077,,0.65,,,,,,0.05,,,,,0.05,,,,,,,,,0.15,,,,,,,0.05,0.05
Co1 Cr1 Fe1 Mo0.2 Ni1,,,,,,0.238,0.238,,0.238,,,,,,0.048,,,0.238,,,,,,,,,,,,
Al0.569 Ca0.143 Li0.857 Mg1 Si0.286 Y0.003,,0.199,,,0.05,,,,,,,0.3,0.35,,,,,,,,,0.1,,,,,,0.001,,
Al0.429 Ca0.286 Li1 Mg1 Si0.143,,0.15,,,0.1,,,,,,,0.35,0.35,,,,,,,,,0.05,,,,,,,,
Al0.312 Ca0.021 Li0.792 Mg1 Si0.021,,0.145,,,0.01,,,,,,,0.369,0.466,,,,,,,,,0.01,,,,,,,,
Al0.333 Ca0.011 Li0.844 Mg1 Si0.033,,0.15,,,0.005,,,,,,,0.38,0.45,,,,,,,,,0.015,,,,,,,,
Al0.333 Ca0.011 Li0.867 Mg1 Si0.011,,0.15,,,0.005,,,,,,,0.39,0.45,,,,,,,,,0.005,,,,,,,,
Co1 Cr1 Fe1 Ni1 Pd1,,,,,,0.2,0.2,,0.2,,,,,,,,,0.2,0.2,,,,,,,,,,,
Co1 Cr1 Fe1 Mn0.2 Ni1 Pd1,,,,,,0.192,0.192,,0.192,,,,,0.038,,,,0.192,0.192,,,,,,,,,,,
Co1 Cr1 Fe1 Mn0.4 Ni1 Pd1,,,,,,0.185,0.185,,0.185,,,,,0.074,,,,0.185,0.185,,,,,,,,,,,
Co1 Cr1 Fe1 Mn0.6 Ni1 Pd1,,,,,,0.179,0.179,,0.179,,,,,0.107,,,,0.179,0.179,,,,,,,,,,,
Co1 Cr1 Fe1 Mn0.8 Ni1 Pd1,,,,,,0.172,0.172,,0.172,,,,,0.138,,,,0.172,0.172,,,,,,,,,,,
Cr1 Fe1 Ni1 Ti0.2,,,,,,,0.312,,0.312,,,,,,,,,0.312,,,,,,,0.062,,,,,
Cr1 Fe1 Ni1 Ti0.3,,,,,,,0.303,,0.303,,,,,,,,,0.303,,,,,,,0.091,,,,,
Cr1 Fe1 Ni1 Ti0.4,,,,,,,0.294,,0.294,,,,,,,,,0.294,,,,,,,0.118,,,,,
Cr1 Fe1 Ni1 Ti0.5,,,,,,,0.286,,0.286,,,,,,,,,0.286,,,,,,,0.143,,,,,
Cr1 Fe1 Ni1 Ti0.6,,,,,,,0.278,,0.278,,,,,,,,,0.278,,,,,,,0.167,,,,,
Al1 Cr1 Cu1 Fe1 Mn1,,0.2,,,,,0.2,0.2,0.2,,,,,0.2,,,,,,,,,,,,,,,,
Al1 Cr1 Cu1 Fe1 Mn1 W0.05,,0.198,,,,,0.198,0.198,0.198,,,,,0.198,,,,,,,,,,,,,0.01,,,
Al1 Cr1 Cu1 Fe1 Mn1 W0.1,,0.196,,,,,0.196,0.196,0.196,,,,,0.196,,,,,,,,,,,,,0.02,,,
Al1 Cr1 Cu1 Fe1 Mn1 W0.5,,0.182,,,,,0.182,0.182,0.182,,,,,0.182,,,,,,,,,,,,,0.091,,,
Co1 Cu1 Fe1 Nb0.5 Ni1,,,,,,0.222,,0.222,0.222,,,,,,,0.111,,0.222,,,,,,,,,,,,
Co0.2 Cu0.2 Fe0.2 Nb1 Ni0.2,,,,,,0.111,,0.111,0.111,,,,,,,0.556,,0.111,,,,,,,,,,,,
Co0.133 Cu0.133 Fe0.133 Nb1 Ni0.133,,,,,,0.087,,0.087,0.087,,,,,,,0.653,,0.087,,,,,,,,,,,,
Co0.086 Cu0.086 Fe0.086 Nb1 Ni0.086,,,,,,0.064,,0.064,0.064,,,,,,,0.744,,0.064,,,,,,,,,,,,
Co0.067 Cu0.067 Fe0.067 Nb1 Ni0.067,,,,,,0.053,,0.053,0.053,,,,,,,0.789,,0.053,,,,,,,,,,,,
B0.006 Co0.201 Cr0.201 Fe1 Mn0.604,,,0.003,,,0.1,0.1,,0.497,,,,,0.3,,,,,,,,,,,,,,,,
B0.012 Co0.202 Cr0.202 Fe1 Mn0.607,,,0.006,,,0.1,0.1,,0.494,,,,,0.3,,,,,,,,,,,,,,,,
B0.035 Co0.207 Cr0.207 Fe1 Mn0.621,,,0.017,,,0.1,0.1,,0.483,,,,,0.3,,,,,,,,,,,,,,,,
Al0.186 Cr0.149 Fe1 Mn0.861 Ni0.28,,0.075,,,,,0.06,,0.404,,,,,0.348,,,,0.113,,,,,,,,,,,,
Hf1 Ti1 Zr1,,,,,,,,,,,0.333,,,,,,,,,,,,,,0.333,,,,,0.333
Hf1 Sc1 Ti1 Zr1,,,,,,,,,,,0.25,,,,,,,,,,0.25,,,,0.25,,,,,0.25
Hf1 Ti1 Y1 Zr1,,,,,,,,,,,0.25,,,,,,,,,,,,,,0.25,,,0.25,,0.25
Hf1 Sc1 Ti1 Y1 Zr1,,,,,,,,,,,0.2,,,,,,,,,,0.2,,,,0.2,,,0.2,,0.2
Co1 Cr1 Fe1 Ga1 Ni1,,,,,,0.2,0.2,,0.2,0.2,,,,,,,,0.2,,,,,,,,,,,,
Al0.562 Co0.938 Cr0.312 Fe0.312 Ni1,,0.18,,,,0.3,0.1,,0.1,,,,,,,,,0.32,,,,,,,,,,,,
Al0.581 Co0.968 Cr0.323 Fe0.323 Mo0.032 Ni1,,0.18,,,,0.3,0.1,,0.1,,,,,,0.01,,,0.31,,,,,,,,,,,,
Al0.6 Co1 Cr0.333 Fe0.333 Mo0.067 Ni1,,0.18,,,,0.3,0.1,,0.1,,,,,,0.02,,,0.3,,,,,,,,,,,,
Al0.6 Co1 Cr0.333 Fe0.333 Mo0.1 Ni0.967,,0.18,,,,0.3,0.1,,0.1,,,,,,0.03,,,0.29,,,,,,,,,,,,
Co1 Cr1 Fe1 Mo0.149 Ni1,,,,,,0.241,0.241,,0.241,,,,,,0.036,,,0.241,,,,,,,,,,,,
Co1 Cr1 Cu1 Fe1 Ni1 V0.042,,,,,,0.198,0.198,0.198,0.198,,,,,,,,,0.198,,,,,,,,0.008,,,,
Co1 Cr1 Cu1 Fe1 Ni1 V0.087,,,,,,0.197,0.197,0.197,0.197,,,,,,,,,0.197,,,,,,,,0.017,,,,
Co1 Cr1 Cu1 Fe1 Ni1 V0.136,,,,,,0.195,0.195,0.195,0.195,,,,,,,,,0.195,,,,,,,,0.026,,,,
Co1 Cr1 Cu1 Fe1 Ni1 V0.19,,,,,,0.193,0.193,0.193,0.193,,,,,,,,,0.193,,,,,,,,0.037,,,,
Co1 Cr1 Cu1 Ni1 Zn1,,,,,,0.2,0.2,0.2,,,,,,,,,,0.2,,,,,,,,,,,0.2,
Nb1 Ta1 Ti1 Zr1,,,,,,,,,,,,,,,,0.25,,,,,,,,0.25,0.25,,,,,0.25
Ta1 Ti1 Zr1,,,,,,,,,,,,,,,,,,,,,,,,0.333,0.333,,,,,0.333
Nb1 Ta0.667 Ti0.667 Zr0.333,,,,,,,,,,,,,,,,0.375,,,,,,,,0.25,0.25,,,,,0.125
Nb0.333 Ta0.667 Ti0.667 Zr1,,,,,,,,,,,,,,,,0.125,,,,,,,,0.25,0.25,,,,,0.375
Ag1 Al1 Nb1 Ti1 Zn1,0.2,0.2,,,,,,,,,,,,,,0.2,,,,,,,,,0.2,,,,0.2,
Al0.774 Fe1 Mn0.903 Ni0.484,,0.245,,,,,,,0.316,,,,,0.286,,,,0.153,,,,,,,,,,,,
Al0.774 Fe1 Mn0.903 Ni0.484 Ti0.026,,0.243,,,,,,,0.314,,,,,0.283,,,,0.152,,,,,,,0.008,,,,,
Al0.774 Fe1 Mn0.903 Ni0.484 Ti0.097,,0.238,,,,,,,0.307,,,,,0.277,,,,0.149,,,,,,,0.03,,,,,
Cr1 Cu1 Fe1 Ni1 Ti1,,,,,,,0.2,0.2,0.2,,,,,,,,,0.2,,,,,,,0.2,,,,,
Al0.5 Cr1 Cu1 Fe1 Ni1,,0.111,,,,,0.222,0.222,0.222,,,,,,,,,0.222,,,,,,,,,,,,
Hf1 Mo1 Nb1 Ta1 Zr1,,,,,,,,,,,0.2,,,,0.2,0.2,,,,,,,,0.2,,,,,,0.2
Hf1 Mo1 Nb1 Ta1 Ti1,,,,,,,,,,,0.2,,,,0.2,0.2,,,,,,,,0.2,0.2,,,,,
C0.111 Co1 Cr1 Fe1 Ni1 W0.111,,,,0.026,,0.237,0.237,,0.237,,,,,,,,,0.237,,,,,,,,,0.026,,,
C0.429 Co1 Cr1 Fe1 Ni1 W0.429,,,,0.088,,0.206,0.206,,0.206,,,,,,,,,0.206,,,,,,,,,0.088,,,
Al0.267 Co1 Cr0.667 Fe0.667 Ni0.667 Ti0.2,,0.077,,,,0.288,0.192,,0.192,,,,,,,,,0.192,,,,,,,0.058,,,,,
Al1 Nb1 Ti1 Zr1,,0.25,,,,,,,,,,,,,,0.25,,,,,,,,,0.25,,,,,0.25
Al1 Cr1 Fe1 Mo0.5 Ni1 Ti0.25,,0.211,,,,,0.211,,0.211,,,,,,0.105,,,0.211,,,,,,,0.053,,,,,
Al1 Cr1 Fe1 Mo0.5 Ni1 Ti0.4,,0.204,,,,,0.204,,0.204,,,,,,0.102,,,0.204,,,,,,,0.082,,,,,
Al1 Cr1 Fe1 Mo0.5 Ni1 Ti0.5,,0.2,,,,,0.2,,0.2,,,,,,0.1,,,0.2,,,,,,,0.1,,,,,
Al1 Cr1 Fe1 Mo0.5 Ni1 Ti0.6,,0.196,,,,,0.196,,0.196,,,,,,0.098,,,0.196,,,,,,,0.118,,,,,
Al1 Cr1 Fe1 Mo0.5 Ni1 Ti0.75,,0.19,,,,,0.19,,0.19,,,,,,0.095,,,0.19,,,,,,,0.143,,,,,
Al1 Cr1 Mo1 Nb1,,0.25,,,,,0.25,,,,,,,,0.25,0.25,,,,,,,,,,,,,,
Al1 Hf1 Nb1 Ti1,,0.25,,,,,,,,,0.25,,,,,0.25,,,,,,,,,0.25,,,,,
Al1 Hf1 Ta1 Ti1,,0.25,,,,,,,,,0.25,,,,,,,,,,,,,0.25,0.25,,,,,
Cr1 Nb1 Ta1 Ti1,,,,,,,0.25,,,,,,,,,0.25,,,,,,,,0.25,0.25,,,,,
Cr1 Nb1 Ti1 W1,,,,,,,0.25,,,,,,,,,0.25,,,,,,,,,0.25,,0.25,,,