File: stats_and_tables/grouped_by_composition.csv
Alloy composition,FORMULA,IDENTIFIER: Reference ID,REFERENCE: doi,PROPERTY: Processing method,PROPERTY: Microstructure,PROPERTY: O content (wppm),PROPERTY: N content (wppm),PROPERTY: C content (wppm),PROPERTY: grain size ($\mu$m),PROPERTY: ROM Density (g/cm$^3$),PROPERTY: Exp. Density (g/cm$^3$),PROPERTY: HV,PROPERTY: Type of test,PROPERTY: Test temperature ($^\circ$C),PROPERTY: YS (MPa),PROPERTY: UTS (MPa),PROPERTY: Elongation (%),PROPERTY: Elongation plastic (%),PROPERTY: Young modulus (GPa),REFERENCE: year
Ag1 Al1 Nb1 Ti1 Zn1,,,,,,,,,,,,,,,,,,,,
,Ag1 Al1 Nb1 Ti1 Zn1,122,10.1016/j.msea.2018.12.020,ANNEAL,,,,,,,4.75,,,,,,,,,2018
,Ag1 Al1 Nb1 Ti1 Zn1,122,10.1016/j.msea.2018.12.020,ANNEAL,,,,,,,5.78,,,,,,,,,2018
,Ag1 Al1 Nb1 Ti1 Zn1,122,10.1016/j.msea.2018.12.020,ANNEAL,,,,,,,5.79,,,,,,,,,2018
,Ag1 Al1 Nb1 Ti1 Zn1,122,10.1016/j.msea.2018.12.020,ANNEAL,,,,,,,5.51,,,,,,,,,2018
,Ag1 Al1 Nb1 Ti1 Zn1,122,10.1016/j.msea.2018.12.020,ANNEAL,,,,,,,,,,,,,,,,2018
Al0.05 Cr0.5 Fe1 Mn0.625 Ni0.375,,,,,,,,,,,,,,,,,,,,
,Al0.05 Cr0.5 Fe1 Mn0.625 Ni0.375,149,10.1016/j.jallcom.2018.08.093,CAST,,,,,,,,,C,25.0,354.0,,,,,2018
,Al0.05 Cr0.5 Fe1 Mn0.625 Ni0.375,149,10.1016/j.jallcom.2018.08.093,CAST,,,,,,,,,C,400.0,260.0,,,,,2018
,Al0.05 Cr0.5 Fe1 Mn0.625 Ni0.375,149,10.1016/j.jallcom.2018.08.093,CAST,,,,,,,,,C,600.0,155.0,,,,,2018
Al0.053 Cu1 Mn1 Ni1,,,,,,,,,,,,,,,,,,,,
,Al0.053 Cu1 Mn1 Ni1,62,10.1016/j.jallcom.2015.07.285,CAST,FCC,,,,,8.3,,166.0,C,25.0,330.0,,45.0,,174.0,2015
Al0.1 Co1 Cr1 Fe1 Mn1 Ni1,,,,,,,,,,,,,,,,,,,,
,Al0.1 Co1 Cr1 Fe1 Mn1 Ni1,16,10.1016/j.actamat.2013.09.037,CAST,FCC,,,,,7.9,,180.0,,25.0,,,,,216.0,2013
,Al0.1 Co1 Cr1 Fe1 Mn1 Ni1,135,10.1016/j.jallcom.2018.10.168,CAST,,,,,,,,432.0,C,25.0,1631.0,,,12.6,,2018
Al0.1 Co1 Cr1 Fe1 Ni1,,,,,,,,,,,,,,,,,,,,
,Al0.1 Co1 Cr1 Fe1 Ni1,179,10.1016/j.actamat.2018.12.012,WROUGHT,FCC,,,,20.0,,,,T,25.0,1198.0,,1.5,,,2018
,Al0.1 Co1 Cr1 Fe1 Ni1,179,10.1016/j.actamat.2018.12.012,WROUGHT,FCC,,,,20.0,,,,T,25.0,1403.0,,1.2,,,2018
,Al0.1 Co1 Cr1 Fe1 Ni1,179,10.1016/j.actamat.2018.12.012,WROUGHT,FCC,,,,20.0,,,,T,25.0,711.0,928.0,30.3,,,2018
,Al0.1 Co1 Cr1 Fe1 Ni1,179,10.1016/j.actamat.2018.12.012,WROUGHT,FCC,,,,7.0,,,,T,25.0,356.0,,42.4,,,2018
Al0.1 Cr0.5 Cu0.5 Fe0.5 Ni1,,,,,,,,,,,,,,,,,,,,
,Al0.1 Cr0.5 Cu0.5 Fe0.5 Ni1,33,10.1063/1.35872,,FCC,,,,,8.0,,,,25.0,,,,,199.0,2011
Al0.108 Co0.514 Cr0.514 Cu0.108 Fe0.514 Ni1,,,,,,,,,,,,,,,,,,,,
,Al0.108 Co0.514 Cr0.514 Cu0.108 Fe0.514 Ni1,159,10.1016/j.matchar.2018.06.036,WROUGHT,,,,,,,,,T,25.0,719.0,1048.0,30.0,,,2018
,Al0.108 Co0.514 Cr0.514 Cu0.108 Fe0.514 Ni1,159,10.1016/j.matchar.2018.06.036,WROUGHT,FCC,,,,,,,,T,25.0,460.0,732.0,32.0,,,2018
,Al0.108 Co0.514 Cr0.514 Cu0.108 Fe0.514 Ni1,159,10.1016/j.matchar.2018.06.036,WROUGHT,FCC,,,,,,,,T,25.0,719.0,1048.0,30.0,,,2018
,Al0.108 Co0.514 Cr0.514 Cu0.108 Fe0.514 Ni1,159,10.1016/j.matchar.2018.06.036,WROUGHT,,,,,,,,,T,25.0,460.0,732.0,32.0,,,2018
Al0.111 Cu1 Mn1 Ni1,,,,,,,,,,,,,,,,,,,,
,Al0.111 Cu1 Mn1 Ni1,62,10.1016/j.jallcom.2015.07.285,CAST,FCC+Sec.,,,,,8.1,,241.0,C,25.0,515.0,,40.0,,,2015
Al0.125 Co1 Cr1 Cu1 Fe1 Mn1 Ni1 Ti1 V1,,,,,,,,,,,,,,,,,,,,
,Al0.125 Co1 Cr1 Cu1 Fe1 Mn1 Ni1 Ti1 V1,61,10.1016/j.msea.2006.11.049,CAST,FCC+BCC,,,,,6.7,,,C,25.0,1862.0,2431.0,1.0,,164.0,2006
Al0.133 Co1 Cr0.667 Fe0.667 Ni1 Ti0.333,,,,,,,,,,,,,,,,,,,,
,Al0.133 Co1 Cr0.667 Fe0.667 Ni1 Ti0.333,1,10.1016/j.actamat.2011.06.041,ANNEAL,FCC,,,,,7.6,,487.0,,25.0,,,,,206.0,2011
Al0.133 Co1 Cr0.667 Fe0.667 Ni1 Ti0.667,,,,,,,,,,,,,,,,,,,,
,Al0.133 Co1 Cr0.667 Fe0.667 Ni1 Ti0.667,1,10.1016/j.actamat.2011.06.041,ANNEAL,FCC+Sec.,,,,,7.2,,717.0,,25.0,,,,,,2011
Al0.143 Cr0.343 Fe1 Mn0.8 Ni0.571,,,,,,,,,,,,,,,,,,,,
,Al0.143 Cr0.343 Fe1 Mn0.8 Ni0.571,208,10.1016/j.msea.2019.05.056,CAST,FCC,,,,,,,,T,25.0,280.0,556.0,48.0,48.2,,2019
,Al0.143 Cr0.343 Fe1 Mn0.8 Ni0.571,208,10.1016/j.msea.2019.05.056,CAST,FCC,,,,,,,,T,25.0,1253.0,1392.0,6.78,8.2,,2019
Al0.15 Cr0.5 Cu0.25 Fe0.5 Ni1,,,,,,,,,,,,,,,,,,,,
,Al0.15 Cr0.5 Cu0.25 Fe0.5 Ni1,187,10.1016/j.matchar.2019.109792,WROUGHT,FCC,,,,,,,107.0,T,62.0,169.0,,98.0,,16.6,2019
,Al0.15 Cr0.5 Cu0.25 Fe0.5 Ni1,187,10.1016/j.matchar.2019.109792,WROUGHT,,,,,,,,209.0,T,350.0,642.0,,73.0,,47.0,2019
,Al0.15 Cr0.5 Cu0.25 Fe0.5 Ni1,187,10.1016/j.matchar.2019.109792,WROUGHT,,,,,,,,321.0,T,535.0,904.0,,39.0,,35.2,2019
,Al0.15 Cr0.5 Cu0.25 Fe0.5 Ni1,187,10.1016/j.matchar.2019.109792,WROUGHT,,,,,,,,159.0,T,255.0,584.0,,88.0,,51.4,2019
Al0.15 Cr0.5 Fe1 Mn0.625 Ni0.375,,,,,,,,,,,,,,,,,,,,
,Al0.15 Cr0.5 Fe1 Mn0.625 Ni0.375,149,10.1016/j.jallcom.2018.08.093,CAST,,,,,,,,,C,25.0,550.0,,,,,2018
,Al0.15 Cr0.5 Fe1 Mn0.625 Ni0.375,149,10.1016/j.jallcom.2018.08.093,CAST,,,,,,,,,C,400.0,469.0,,,,,2018
,Al0.15 Cr0.5 Fe1 Mn0.625 Ni0.375,149,10.1016/j.jallcom.2018.08.093,CAST,,,,,,,,,C,600.0,272.0,,,,,2018
Al0.167 Co1 Cr1 Fe1 Ni1 Ti0.083,,,,,,,,,,,,,,,,,,,,
,Al0.167 Co1 Cr1 Fe1 Ni1 Ti0.083,159,10.1016/j.matchar.2018.06.036,ANNEAL,FCC,,,,289.7,,,,T,25.0,210.0,503.0,70.0,,,2018
,Al0.167 Co1 Cr1 Fe1 Ni1 Ti0.083,159,10.1016/j.matchar.2018.06.036,WROUGHT,,,,,15.7,,,,T,25.0,645.0,1094.0,39.0,,,2018
,Al0.167 Co1 Cr1 Fe1 Ni1 Ti0.083,159,10.1016/j.matchar.2018.06.036,WROUGHT,,,,,2.8,,,,T,25.0,1005.0,1273.0,17.0,,,2018
Al0.186 Cr0.149 Fe1 Mn0.861 Ni0.28,,,,,,,,,,,,,,,,,,,,
,Al0.186 Cr0.149 Fe1 Mn0.861 Ni0.28,113,10.1016/j.msea.2019.01.083,CAST,,,,,,,,,T,25.0,159.0,535.0,,40.8,,2019
,Al0.186 Cr0.149 Fe1 Mn0.861 Ni0.28,113,10.1016/j.msea.2019.01.083,ANNEAL,,,,,,,,,T,25.0,409.0,584.0,,10.5,,2019
,Al0.186 Cr0.149 Fe1 Mn0.861 Ni0.28,113,10.1016/j.msea.2019.01.083,CAST,,,,,,,,,T,25.0,355.0,1174.0,,49.5,,2019
,Al0.186 Cr0.149 Fe1 Mn0.861 Ni0.28,113,10.1016/j.msea.2019.01.083,ANNEAL,,,,,,,,,T,25.0,954.0,978.0,,2.0,,2019
Al0.2 Co1 Cr1 Fe1 Mn1 Ni1,,,,,,,,,,,,,,,,,,,,
,Al0.2 Co1 Cr1 Fe1 Mn1 Ni1,16,10.1016/j.actamat.2013.09.037,CAST,FCC,,,,,7.7,,171.0,T,25.0,220.0,,56.0,,214.0,2013
Al0.2 Cr0.5 Cu0.5 Fe0.5 Ni1,,,,,,,,,,,,,,,,,,,,
,Al0.2 Cr0.5 Cu0.5 Fe0.5 Ni1,33,10.1063/1.35872,,FCC,,,,,7.8,,,,25.0,,,,,194.0,2011
Al0.2 Cr0.667 Fe1 Mn0.667 Ni0.333,,,,,,,,,,,,,,,,,,,,
,Al0.2 Cr0.667 Fe1 Mn0.667 Ni0.333,18,10.1016/j.msea.2010.05.052,CAST,FCC+BCC,,,,,7.2,,297.0,,25.0,,,,,213.0,2010
Al0.2 Mo1 Ta1 Ti1 V1,,,,,,,,,,,,,,,,,,,,
,Al0.2 Mo1 Ta1 Ti1 V1,88,10.4028/www.scientific.net/MSF.898.638,CAST,BCC,,,,,9.2,,,C,25.0,1021.0,1249.0,,,184.0,2017
Al0.214 Nb0.714 Ta0.571 Ti1 V0.143 Zr0.929,,,,,,,,,,,,,,,,,,,,
,Al0.214 Nb0.714 Ta0.571 Ti1 V0.143 Zr0.929,39,10.1007/s11837-014-1066-0,OTHER,BCC,,,,180.0,7.7,,500.0,C,25.0,1965.0,2061.0,5.0,,110.0,2014
,Al0.214 Nb0.714 Ta0.571 Ti1 V0.143 Zr0.929,39,10.1007/s11837-014-1066-0,OTHER,BCC,,,,180.0,7.8,,,C,25.0,1965.0,2061.0,5.0,,,2014
,Al0.214 Nb0.714 Ta0.571 Ti1 V0.143 Zr0.929,39,10.1007/s11837-014-1066-0,OTHER,BCC,,,,180.0,7.8,,,C,800.0,678.0,693.0,50.0,,,2014
,Al0.214 Nb0.714 Ta0.571 Ti1 V0.143 Zr0.929,39,10.1007/s11837-014-1066-0,OTHER,BCC,,,,180.0,7.8,,,C,1000.0,166.0,189.0,50.0,,,2014
Al0.214 Nb0.714 Ta0.714 Ti1 Zr0.929,,,,,,,,,,,,,,,,,,,,
,Al0.214 Nb0.714 Ta0.714 Ti1 Zr0.929,39,10.1007/s11837-014-1066-0,OTHER,BCC,,,,200.0,8.1,,490.0,C,25.0,1965.0,2054.0,5.0,,113.0,2014
,Al0.214 Nb0.714 Ta0.714 Ti1 Zr0.929,39,10.1007/s11837-014-1066-0,OTHER,BCC,,,,200.0,8.2,,,C,25.0,1965.0,2054.0,5.0,,,2014
,Al0.214 Nb0.714 Ta0.714 Ti1 Zr0.929,39,10.1007/s11837-014-1066-0,OTHER,BCC,,,,200.0,8.2,,,C,800.0,362.0,397.0,50.0,,,2014
,Al0.214 Nb0.714 Ta0.714 Ti1 Zr0.929,39,10.1007/s11837-014-1066-0,OTHER,BCC,,,,200.0,8.2,,,C,1000.0,236.0,247.0,50.0,,,2014
Al0.229 Co0.486 Cr0.4 Cu0.229 Fe0.486 Mo0.003 Ni1 Ti0.029 W0.003,,,,,,,,,,,,,,,,,,,,
,Al0.229 Co0.486 Cr0.4 Cu0.229 Fe0.486 Mo0.003 Ni1 Ti0.029 W0.003,159,10.1016/j.matchar.2018.06.036,CAST,,,,,,,,231.0,,,,,,,,2018
,Al0.229 Co0.486 Cr0.4 Cu0.229 Fe0.486 Mo0.003 Ni1 Ti0.029 W0.003,159,10.1016/j.matchar.2018.06.036,ANNEAL,,,,,,,,178.0,,,,,,,,2018
,Al0.229 Co0.486 Cr0.4 Cu0.229 Fe0.486 Mo0.003 Ni1 Ti0.029 W0.003,159,10.1016/j.matchar.2018.06.036,ANNEAL,,,,,,,,343.0,,,,,,,,2018
,Al0.229 Co0.486 Cr0.4 Cu0.229 Fe0.486 Mo0.003 Ni1 Ti0.029 W0.003,159,10.1016/j.matchar.2018.06.036,ANNEAL,,,,,,,,171.0,,,,,,,,2018
Al0.24 Nb1 Ti1 V1 Zr1,,,,,,,,,,,,,,,,,,,,
,Al0.24 Nb1 Ti1 V1 Zr1,157,10.1016/j.actamat.2019.06.032,OTHER,,,,,,,6.34,,C,23.0,1240.0,,,,,2019
,Al0.24 Nb1 Ti1 V1 Zr1,157,10.1016/j.actamat.2019.06.032,OTHER,,,,,,,6.34,,C,1000.0,82.0,,,,,2019
,Al0.24 Nb1 Ti1 V1 Zr1,157,10.1016/j.actamat.2019.06.032,OTHER,,,,,,,6.34,,C,1200.0,24.0,,,,,2019
Al0.242 Co0.515 Cr0.515 Cu0.242 Fe0.515 Ni1,,,,,,,,,,,,,,,,,,,,
,Al0.242 Co0.515 Cr0.515 Cu0.242 Fe0.515 Ni1,159,10.1016/j.matchar.2018.06.036,CAST,,,,,,,,280.0,T,25.0,357.0,459.0,9.0,,,2018
,Al0.242 Co0.515 Cr0.515 Cu0.242 Fe0.515 Ni1,159,10.1016/j.matchar.2018.06.036,ANNEAL,,,,,,,,168.0,,,,,,,,2018
,Al0.242 Co0.515 Cr0.515 Cu0.242 Fe0.515 Ni1,159,10.1016/j.matchar.2018.06.036,ANNEAL,,,,,,,,328.0,,,,,,,,2018
,Al0.242 Co0.515 Cr0.515 Cu0.242 Fe0.515 Ni1,159,10.1016/j.matchar.2018.06.036,ANNEAL,,,,,,,,206.0,,,,,,,,2018
,Al0.242 Co0.515 Cr0.515 Cu0.242 Fe0.515 Ni1,159,10.1016/j.matchar.2018.06.036,ANNEAL,,,,,,,,,T,25.0,215.0,489.0,39.0,,,2018
,Al0.242 Co0.515 Cr0.515 Cu0.242 Fe0.515 Ni1,159,10.1016/j.matchar.2018.06.036,CAST,,,,,,,,,T,25.0,357.0,459.0,9.0,,,2018
,Al0.242 Co0.515 Cr0.515 Cu0.242 Fe0.515 Ni1,159,10.1016/j.matchar.2018.06.036,ANNEAL,,,,,,,,,T,25.0,365.0,365.0,0.1,,,2018
,Al0.242 Co0.515 Cr0.515 Cu0.242 Fe0.515 Ni1,159,10.1016/j.matchar.2018.06.036,ANNEAL,,,,,,,,,T,25.0,215.0,489.0,39.0,,,2018
Al0.25 Co0.5 Cr0.5 Cu0.5 Fe0.5 Ni0.5 Ti1,,,,,,,,,,,,,,,,,,,,
,Al0.25 Co0.5 Cr0.5 Cu0.5 Fe0.5 Ni0.5 Ti1,24,10.2320/matertrans.47.1395,CAST,FCC+BCC+Sec.,,,,,6.5,,696.0,,25.0,,,,,,2006
Al0.25 Co0.5 Cr0.5 Cu0.5 Fe0.5 Ni0.5 V1,,,,,,,,,,,,,,,,,,,,
,Al0.25 Co0.5 Cr0.5 Cu0.5 Fe0.5 Ni0.5 V1,25,10.1007/s11661-006-0081-3,CAST,BCC,,,,,7.2,,587.0,,25.0,,,,,176.0,2006
,Al0.25 Co0.5 Cr0.5 Cu0.5 Fe0.5 Ni0.5 V1,208,10.1016/j.msea.2019.05.056,,,,,,,,,550.0,,,,,,,,2019
Al0.25 Co1 Cr1 Cu0.5 Fe1 Ni1 Ti0.5,,,,,,,,,,,,,,,,,,,,
,Al0.25 Co1 Cr1 Cu0.5 Fe1 Ni1 Ti0.5,13,10.1016/j.jallcom.2008.11.059,CAST,FCC,,,,,7.4,,,,25.0,,,,,198.0,2008
Al0.25 Co1 Cr1 Cu0.75 Fe1 Ni1 Ti0.5,,,,,,,,,,,,,,,,,,,,
,Al0.25 Co1 Cr1 Cu0.75 Fe1 Ni1 Ti0.5,13,10.1016/j.jallcom.2008.11.059,CAST,FCC,,,,,7.5,,,C,25.0,750.0,1970.0,,39.0,103.0,2008
Al0.25 Co1 Cr1 Cu1 Fe1 Mn1 Ni1 Ti1 V1,,,,,,,,,,,,,,,,,,,,
,Al0.25 Co1 Cr1 Cu1 Fe1 Mn1 Ni1 Ti1 V1,61,10.1016/j.msea.2006.11.049,CAST,BCC,,,,,6.1,,,C,25.0,1465.0,2016.0,2.0,,190.0,2006
Al0.25 Co1 Cr1 Fe1 Ni1,,,,,,,,,,,,,,,,,,,,
,Al0.25 Co1 Cr1 Fe1 Ni1,54,10.1016/j.jallcom.2009.08.090,ANNEAL,FCC,,,,,7.7,,110.0,,25.0,,,,,216.0,2009
,Al0.25 Co1 Cr1 Fe1 Ni1,54,10.1016/j.jallcom.2009.08.090,ANNEAL,FCC,,,,,7.7,,113.0,,25.0,,,,,216.0,2009
Al0.25 Co1 Fe1 Ni1,,,,,,,,,,,,,,,,,,,,
,Al0.25 Co1 Fe1 Ni1,27,10.1016/j.jmmm.2014.07.023,CAST,FCC,,,,,7.9,,138.0,C,25.0,158.0,,,,196.0,2014
Al0.25 Cr0.417 Fe0.417 Ni1,,,,,,,,,,,,,,,,,,,,
,Al0.25 Cr0.417 Fe0.417 Ni1,199,10.1016/j.jallcom.2018.08.176,CAST,FCC,,,,,,,,T,25.0,441.0,757.0,45.0,,,2018
Al0.25 Cr0.5 Fe1 Mn0.625 Ni0.375,,,,,,,,,,,,,,,,,,,,
,Al0.25 Cr0.5 Fe1 Mn0.625 Ni0.375,149,10.1016/j.jallcom.2018.08.093,CAST,,,,,175.0,,,,C,25.0,994.0,,,,,2018
,Al0.25 Cr0.5 Fe1 Mn0.625 Ni0.375,149,10.1016/j.jallcom.2018.08.093,CAST,,,,,175.0,,,,C,400.0,943.0,,,,,2018
,Al0.25 Cr0.5 Fe1 Mn0.625 Ni0.375,149,10.1016/j.jallcom.2018.08.093,CAST,,,,,175.0,,,,C,600.0,359.0,,,,,2018
Al0.25 Cr0.5 Nb0.5 Ti1 V0.25,,,,,,,,,,,,,,,,,,,,
,Al0.25 Cr0.5 Nb0.5 Ti1 V0.25,98,10.1016/j.matlet.2016.11.030,ANNEAL,BCC+Laves,,,,,5.8,,,C,600.0,930.0,,,,,2016
,Al0.25 Cr0.5 Nb0.5 Ti1 V0.25,98,10.1016/j.matlet.2016.11.030,ANNEAL,BCC+Laves,,,,,5.8,,,C,800.0,445.0,,,,143.0,2016
,Al0.25 Cr0.5 Nb0.5 Ti1 V0.25,98,10.1016/j.matlet.2016.11.030,ANNEAL,BCC+Laves,,,,,5.8,,,C,1000.0,90.0,,,,,2016
,Al0.25 Cr0.5 Nb0.5 Ti1 V0.25,98,10.1016/j.matlet.2016.11.030,ANNEAL,BCC+Laves,,,,,5.8,,,C,25.0,1340.0,1700.0,,,,2016
,Al0.25 Cr0.5 Nb0.5 Ti1 V0.25,98,10.1016/j.matlet.2016.11.030,CAST,BCC,,,,,5.8,,,C,25.0,1240.0,,,,,2016
Al0.25 Mo1 Nb1 Ti1 V1,,,,,,,,,,,,,,,,,,,,
,Al0.25 Mo1 Nb1 Ti1 V1,41,10.3390/e16020870,CAST,BCC,,,,,7.1,,460.0,C,25.0,1250.0,1500.0,13.0,,164.0,2014
Al0.25 Nb1 Ta1 Ti1 V1,,,,,,,,,,,,,,,,,,,,
,Al0.25 Nb1 Ta1 Ti1 V1,42,10.1016/j.proeng.2012.03.043,CAST,BCC,,,,,8.8,,,C,25.0,1330.0,,,,92.0,2012
Al0.25 Nb1 Ta1 Ti1 Zr1,,,,,,,,,,,,,,,,,,,,
,Al0.25 Nb1 Ta1 Ti1 Zr1,78,10.1016/j.matdes.2017.11.033,OTHER,BCC+B2,,,,,8.6,,,C,1000.0,366.0,408.0,,,,2017
,Al0.25 Nb1 Ta1 Ti1 Zr1,78,10.1016/j.matdes.2017.11.033,OTHER,BCC+B2,,,,,8.6,,,C,25.0,1745.0,1830.0,,,,2017
Al0.267 Co1 Cr0.667 Fe0.667 Ni0.667 Ti0.2,,,,,,,,,,,,,,,,,,,,
,Al0.267 Co1 Cr0.667 Fe0.667 Ni0.667 Ti0.2,131,10.5755/j01.ms.25.3.19452,POWDER,,,,,,,,515.0,C,25.0,2012.0,,,17.52,,2019
Al0.278 Co0.556 Cr0.556 Cu0.556 Fe0.556 Ni0.556 Ti1,,,,,,,,,,,,,,,,,,,,
,Al0.278 Co0.556 Cr0.556 Cu0.556 Fe0.556 Ni0.556 Ti1,24,10.2320/matertrans.47.1395,CAST,FCC+BCC+Sec.,,,,,6.6,,667.0,,25.0,,,,,,2006
Al0.278 Co0.556 Cr0.556 Cu0.556 Fe0.556 Ni0.556 V1,,,,,,,,,,,,,,,,,,,,
,Al0.278 Co0.556 Cr0.556 Cu0.556 Fe0.556 Ni0.556 V1,25,10.1007/s11661-006-0081-3,CAST,BCC,,,,,7.2,,597.0,,25.0,,,,,177.0,2006
Al0.278 Co0.694 Cr0.222 Fe0.417 Ni1 Ti0.167,,,,,,,,,,,,,,,,,,,,
,Al0.278 Co0.694 Cr0.222 Fe0.417 Ni1 Ti0.167,159,10.1016/j.matchar.2018.06.036,CAST,,,,,,,,343.0,,,,,,,,2018
,Al0.278 Co0.694 Cr0.222 Fe0.417 Ni1 Ti0.167,159,10.1016/j.matchar.2018.06.036,ANNEAL,,,,,,,,341.0,,,,,,,,2018
,Al0.278 Co0.694 Cr0.222 Fe0.417 Ni1 Ti0.167,159,10.1016/j.matchar.2018.06.036,ANNEAL,,,,,,,,345.0,T,25.0,568.0,786.0,12.0,,,2018
,Al0.278 Co0.694 Cr0.222 Fe0.417 Ni1 Ti0.167,159,10.1016/j.matchar.2018.06.036,ANNEAL,,,,,,,,345.0,T,25.0,596.0,1039.0,20.0,,,2018
,Al0.278 Co0.694 Cr0.222 Fe0.417 Ni1 Ti0.167,159,10.1016/j.matchar.2018.06.036,ANNEAL,,,,,0.37,,,345.0,T,700.0,487.0,702.0,18.0,,,2018
,Al0.278 Co0.694 Cr0.222 Fe0.417 Ni1 Ti0.167,159,10.1016/j.matchar.2018.06.036,ANNEAL,,,,,0.32,,,345.0,T,700.0,486.0,624.0,11.0,,,2018
,Al0.278 Co0.694 Cr0.222 Fe0.417 Ni1 Ti0.167,177,10.3390/e21020169,ANNEAL,FCC,,,,,,,,T,23.0,520.0,696.0,49.0,,,2019
,Al0.278 Co0.694 Cr0.222 Fe0.417 Ni1 Ti0.167,177,10.3390/e21020169,ANNEAL,FCC,,,,,,,,T,600.0,470.0,561.0,11.0,,,2019
,Al0.278 Co0.694 Cr0.222 Fe0.417 Ni1 Ti0.167,177,10.3390/e21020169,ANNEAL,FCC,,,,,,,,T,700.0,461.0,560.0,9.0,,,2019
,Al0.278 Co0.694 Cr0.222 Fe0.417 Ni1 Ti0.167,177,10.3390/e21020169,ANNEAL,FCC,,,,,,,,T,800.0,445.0,536.0,6.0,,,2019
,Al0.278 Co0.694 Cr0.222 Fe0.417 Ni1 Ti0.167,177,10.3390/e21020169,ANNEAL,FCC,,,,,,,,T,900.0,219.0,312.0,8.0,,,2019
,Al0.278 Co0.694 Cr0.222 Fe0.417 Ni1 Ti0.167,177,10.3390/e21020169,ANNEAL,FCC,,,,,,,,T,23.0,627.0,1197.0,27.0,,,2019
,Al0.278 Co0.694 Cr0.222 Fe0.417 Ni1 Ti0.167,177,10.3390/e21020169,ANNEAL,FCC,,,,,,,,T,600.0,594.0,1006.0,12.0,,,2019
,Al0.278 Co0.694 Cr0.222 Fe0.417 Ni1 Ti0.167,177,10.3390/e21020169,ANNEAL,FCC,,,,,,,,T,700.0,547.0,840.0,17.0,,,2019
,Al0.278 Co0.694 Cr0.222 Fe0.417 Ni1 Ti0.167,177,10.3390/e21020169,ANNEAL,FCC,,,,,,,,T,800.0,399.0,575.0,20.0,,,2019
,Al0.278 Co0.694 Cr0.222 Fe0.417 Ni1 Ti0.167,177,10.3390/e21020169,ANNEAL,FCC,,,,,,,,T,900.0,243.0,319.0,34.0,,,2019
Al0.286 Cr0.343 Fe1 Mn0.657 Ni0.571,,,,,,,,,,,,,,,,,,,,
,Al0.286 Cr0.343 Fe1 Mn0.657 Ni0.571,208,10.1016/j.msea.2019.05.056,WROUGHT,FCC,,,,,,,,T,25.0,320.0,625.0,42.2,42.45,,2019
,Al0.286 Cr0.343 Fe1 Mn0.657 Ni0.571,208,10.1016/j.msea.2019.05.056,WROUGHT,FCC,,,,,,,,T,25.0,1400.0,1500.0,5.83,7.85,,2019
Al0.3 Co1 Cr1 Cu1 Fe1,,,,,,,,,,,,,,,,,,,,
,Al0.3 Co1 Cr1 Cu1 Fe1,20,10.3166/acsm.31.633-648,,FCC,,,,,7.7,,180.0,,25.0,,,,,194.0,2019
Al0.3 Co1 Cr1 Fe1 Mn1 Ni1,,,,,,,,,,,,,,,,,,,,
,Al0.3 Co1 Cr1 Fe1 Mn1 Ni1,135,10.1016/j.jallcom.2018.10.168,CAST,,,,,0.2,,,511.0,C,25.0,1836.0,,,4.9,,2018
,Al0.3 Co1 Cr1 Fe1 Mn1 Ni1,108,10.1016/j.scriptamat.2018.12.021,POWDER,,,,,,,,,,,,,,,,2018
Al0.3 Co1 Cr1 Fe1 Mo0.1 Ni1,,,,,,,,,,,,,,,,,,,,
,Al0.3 Co1 Cr1 Fe1 Mo0.1 Ni1,208,10.1016/j.msea.2019.05.056,,FCC,,,,,,,200.0,,,,,,,,2019
Al0.3 Co1 Cr1 Fe1 Ni1,,,,,,,,,,,,,,,,,,,,
,Al0.3 Co1 Cr1 Fe1 Ni1,139,10.1016/j.scriptamat.2018.08.048,WROUGHT,,,,,0.71,,,,T,25.0,900.0,1074.0,25.0,,,2018
,Al0.3 Co1 Cr1 Fe1 Ni1,137,10.1016/j.matdes.2019.107698,CAST,FCC,,,,,,,117.0,,,,,,,,2019
,Al0.3 Co1 Cr1 Fe1 Ni1,140,10.1016/j.scriptamat.2018.10.023,WROUGHT,,,,,,,,,T,25.0,143.0,400.0,65.0,,,2018
,Al0.3 Co1 Cr1 Fe1 Ni1,140,10.1016/j.scriptamat.2018.10.023,WROUGHT,,,,,,,,,T,25.0,471.0,850.0,45.0,,,2018
,Al0.3 Co1 Cr1 Fe1 Ni1,140,10.1016/j.scriptamat.2018.10.023,WROUGHT,,,,,,,,,T,25.0,841.0,1050.0,35.0,,,2018
,Al0.3 Co1 Cr1 Fe1 Ni1,140,10.1016/j.scriptamat.2018.10.023,WROUGHT,,,,,,,,,T,25.0,161.0,1650.0,7.0,,,2018
,Al0.3 Co1 Cr1 Fe1 Ni1,140,10.1016/j.scriptamat.2018.10.023,WROUGHT,,,,,,,,,T,25.0,187.0,1850.0,5.0,,,2018
,Al0.3 Co1 Cr1 Fe1 Ni1,150,10.1016/j.actamat.2018.12.010,WROUGHT,,,,,,,,,T,25.0,840.0,1039.0,32.0,,,2018
,Al0.3 Co1 Cr1 Fe1 Ni1,150,10.1016/j.actamat.2018.12.010,WROUGHT,FCC,,,,,,,,T,25.0,159.0,410.0,65.0,,,2018
,Al0.3 Co1 Cr1 Fe1 Ni1,169,10.1088/2053-1591/ab0597,CAST,FCC,,,,,,,132.0,C,300.0,,,,,,2019
,Al0.3 Co1 Cr1 Fe1 Ni1,169,10.1088/2053-1591/ab0597,CAST,FCC,,,,,,,147.0,C,340.0,,,,,,2019
,Al0.3 Co1 Cr1 Fe1 Ni1,169,10.1088/2053-1591/ab0597,CAST,FCC,,,,,,,165.0,C,430.0,,,,,,2019
,Al0.3 Co1 Cr1 Fe1 Ni1,208,10.1016/j.msea.2019.05.056,,FCC,,,,,,,160.0,,,,,,,,2019
Al0.3 Cr0.5 Cu0.5 Fe0.5 Ni1,,,,,,,,,,,,,,,,,,,,
,Al0.3 Cr0.5 Cu0.5 Fe0.5 Ni1,33,10.1063/1.35872,,FCC,,,,,7.5,,,,25.0,,,,,190.0,2011
Al0.3 Hf1 Nb1 Ta1 Ti1 Zr1,,,,,,,,,,,,,,,,,,,,
,Al0.3 Hf1 Nb1 Ta1 Ti1 Zr1,40,10.1016/j.jallcom.2014.11.064,CAST,BCC,,,,105.0,9.5,,353.0,C,25.0,1188.0,,50.0,,63.0,2014
Al0.304 Co1 Cr1 Fe1 Ni1,,,,,,,,,,,,,,,,,,,,
,Al0.304 Co1 Cr1 Fe1 Ni1,159,10.1016/j.matchar.2018.06.036,,,,,,0.7,,,,T,25.0,860.0,1050.0,48.0,,,2018
,Al0.304 Co1 Cr1 Fe1 Ni1,159,10.1016/j.matchar.2018.06.036,,,,,,2.7,,,,T,25.0,690.0,930.0,51.0,,,2018
,Al0.304 Co1 Cr1 Fe1 Ni1,159,10.1016/j.matchar.2018.06.036,,,,,,3.8,,,,T,25.0,550.0,800.0,64.0,,,2018
,Al0.304 Co1 Cr1 Fe1 Ni1,159,10.1016/j.matchar.2018.06.036,,FCC,,,,53.0,,,,T,25.0,260.0,620.0,87.0,,,2018
,Al0.304 Co1 Cr1 Fe1 Ni1,159,10.1016/j.matchar.2018.06.036,WROUGHT,,,,,,,,,,,,,,,,2018
,Al0.304 Co1 Cr1 Fe1 Ni1,159,10.1016/j.matchar.2018.06.036,WROUGHT,FCC,,,,,,,,,,,,,,,2018
,Al0.304 Co1 Cr1 Fe1 Ni1,159,10.1016/j.matchar.2018.06.036,WROUGHT,,,,,,,,,,,,,,,,2018
,Al0.304 Co1 Cr1 Fe1 Ni1,159,10.1016/j.matchar.2018.06.036,WROUGHT,,,,,,,,,,,,,,,,2018
,Al0.304 Co1 Cr1 Fe1 Ni1,159,10.1016/j.matchar.2018.06.036,WROUGHT,FCC,,,,144.0,,,,T,25.0,159.0,410.0,65.0,,,2018
,Al0.304 Co1 Cr1 Fe1 Ni1,159,10.1016/j.matchar.2018.06.036,WROUGHT,,,,,144.0,,,,T,25.0,215.0,520.0,43.0,,,2018
,Al0.304 Co1 Cr1 Fe1 Ni1,159,10.1016/j.matchar.2018.06.036,WROUGHT,,,,,144.0,,,,T,25.0,285.0,540.0,55.0,,,2018
,Al0.304 Co1 Cr1 Fe1 Ni1,159,10.1016/j.matchar.2018.06.036,WROUGHT,FCC,,,,23.0,,,,T,25.0,263.0,589.0,60.0,,,2018
,Al0.304 Co1 Cr1 Fe1 Ni1,159,10.1016/j.matchar.2018.06.036,WROUGHT,,,,,23.0,,,,T,25.0,490.0,840.0,45.0,,,2018
,Al0.304 Co1 Cr1 Fe1 Ni1,159,10.1016/j.matchar.2018.06.036,CAST,FCC,,,,,,,,,,,,,,,2018
,Al0.304 Co1 Cr1 Fe1 Ni1,159,10.1016/j.matchar.2018.06.036,ANNEAL,,,,,,,,,,,,,,,,2018
,Al0.304 Co1 Cr1 Fe1 Ni1,159,10.1016/j.matchar.2018.06.036,ANNEAL,,,,,,,,,,,,,,,,2018
,Al0.304 Co1 Cr1 Fe1 Ni1,159,10.1016/j.matchar.2018.06.036,CAST,,,,,,,,,T,25.0,175.0,335.0,58.0,,,2018
,Al0.304 Co1 Cr1 Fe1 Ni1,159,10.1016/j.matchar.2018.06.036,ANNEAL,,,,,,,,,T,25.0,305.0,525.0,44.0,,,2018
,Al0.304 Co1 Cr1 Fe1 Ni1,159,10.1016/j.matchar.2018.06.036,ANNEAL,,,,,,,,,T,25.0,280.0,570.0,44.0,,,2018
,Al0.304 Co1 Cr1 Fe1 Ni1,159,10.1016/j.matchar.2018.06.036,ANNEAL,FCC,,,,,,,,,,,,,,,2018
,Al0.304 Co1 Cr1 Fe1 Ni1,159,10.1016/j.matchar.2018.06.036,ANNEAL,FCC,,,,,,,,,,,,,,,2018
,Al0.304 Co1 Cr1 Fe1 Ni1,159,10.1016/j.matchar.2018.06.036,ANNEAL,,,,,,,,,,,,,,,,2018
,Al0.304 Co1 Cr1 Fe1 Ni1,159,10.1016/j.matchar.2018.06.036,CAST,FCC,,,,,,,,C,25.0,,,25.0,,,2018
,Al0.304 Co1 Cr1 Fe1 Ni1,159,10.1016/j.matchar.2018.06.036,CAST,FCC,,,,,,,,T,25.0,210.0,500.0,58.0,,,2018
,Al0.304 Co1 Cr1 Fe1 Ni1,159,10.1016/j.matchar.2018.06.036,CAST,,,,,,,,,T,25.0,832.0,1174.0,7.7,,,2018
Al0.304 Cr0.435 Fe0.435 Ni1,,,,,,,,,,,,,,,,,,,,
,Al0.304 Cr0.435 Fe0.435 Ni1,199,10.1016/j.jallcom.2018.08.176,CAST,,,,,,,,,T,25.0,461.0,835.0,30.0,,,2018
Al0.312 Ca0.021 Li0.792 Mg1 Si0.021,,,,,,,,,,,,,,,,,,,,
,Al0.312 Ca0.021 Li0.792 Mg1 Si0.021,105,10.3390/ma12071136,CAST,,,,,,,1.52,,C,25.0,360.0,,9.0,,,2019
Al0.312 Co0.625 Cr0.625 Cu0.625 Fe0.625 Ni0.625 Ti1,,,,,,,,,,,,,,,,,,,,
,Al0.312 Co0.625 Cr0.625 Cu0.625 Fe0.625 Ni0.625 Ti1,24,10.2320/matertrans.47.1395,CAST,FCC+BCC+Sec.,,,,,6.7,,657.0,,25.0,,,,,,2006
Al0.312 Co0.625 Cr0.625 Cu0.625 Fe0.625 Ni0.625 V1,,,,,,,,,,,,,,,,,,,,
,Al0.312 Co0.625 Cr0.625 Cu0.625 Fe0.625 Ni0.625 V1,25,10.1007/s11661-006-0081-3,CAST,BCC,,,,,7.2,,594.0,,25.0,,,,,179.0,2006
Al0.333 Ca0.011 Li0.844 Mg1 Si0.033,,,,,,,,,,,,,,,,,,,,
,Al0.333 Ca0.011 Li0.844 Mg1 Si0.033,105,10.3390/ma12071136,CAST,,,,,,,1.5,,C,25.0,342.0,,44.0,,,2019
Al0.333 Ca0.011 Li0.867 Mg1 Si0.011,,,,,,,,,,,,,,,,,,,,
,Al0.333 Ca0.011 Li0.867 Mg1 Si0.011,105,10.3390/ma12071136,CAST,,,,,,,1.46,,C,25.0,300.0,,63.0,,,2019
Al0.333 Co0.333 Cu0.333 Fe0.333 Ni1,,,,,,,,,,,,,,,,,,,,
,Al0.333 Co0.333 Cu0.333 Fe0.333 Ni1,213,10.1016/j.jmst.2018.12.014,CAST,FCC,,,,,,,279.6,C,25.0,268.0,,,,,2018
Al0.333 Co0.667 Cr0.667 Cu0.667 Fe0.667 Ni0.667 V1,,,,,,,,,,,,,,,,,,,,
,Al0.333 Co0.667 Cr0.667 Cu0.667 Fe0.667 Ni0.667 V1,208,10.1016/j.msea.2019.05.056,,,,,,,,,576.0,,,,,,,,2019
Al0.333 Cr0.667 Fe1 Mn0.667 Ni0.333,,,,,,,,,,,,,,,,,,,,
,Al0.333 Cr0.667 Fe1 Mn0.667 Ni0.333,18,10.1016/j.msea.2010.05.052,CAST,BCC,,,,,7.0,,396.0,,25.0,,,,,206.0,2010
Al0.333 Nb0.667 Ta0.533 Ti1 V0.133 Zr0.667,,,,,,,,,,,,,,,,,,,,
,Al0.333 Nb0.667 Ta0.533 Ti1 V0.133 Zr0.667,39,10.1007/s11837-014-1066-0,OTHER,BCC,,,,100.0,7.6,,530.0,C,25.0,2035.0,2105.0,5.0,,111.0,2014
,Al0.333 Nb0.667 Ta0.533 Ti1 V0.133 Zr0.667,39,10.1007/s11837-014-1066-0,OTHER,BCC,,,,100.0,7.4,,,C,25.0,2035.0,2105.0,4.5,,,2014
,Al0.333 Nb0.667 Ta0.533 Ti1 V0.133 Zr0.667,39,10.1007/s11837-014-1066-0,OTHER,BCC,,,,100.0,7.4,,,C,800.0,796.0,851.0,50.0,,,2014
,Al0.333 Nb0.667 Ta0.533 Ti1 V0.133 Zr0.667,39,10.1007/s11837-014-1066-0,OTHER,BCC,,,,100.0,7.4,,,C,1000.0,220.0,225.0,50.0,,,2014
Al0.343 Co0.514 Cr0.514 Fe1 Ni0.514,,,,,,,,,,,,,,,,,,,,
,Al0.343 Co0.514 Cr0.514 Fe1 Ni0.514,159,10.1016/j.matchar.2018.06.036,CAST,,,,,,,,,T,25.0,866.0,1223.0,7.9,,,2018
,Al0.343 Co0.514 Cr0.514 Fe1 Ni0.514,159,10.1016/j.matchar.2018.06.036,CAST,,,,,,,,,T,650.0,400.0,468.0,6.3,,,2018
,Al0.343 Co0.514 Cr0.514 Fe1 Ni0.514,159,10.1016/j.matchar.2018.06.036,CAST,,,,,,,,,T,700.0,220.0,340.0,5.4,,,2018
,Al0.343 Co0.514 Cr0.514 Fe1 Ni0.514,159,10.1016/j.matchar.2018.06.036,CAST,,,,,,,,,C,25.0,1166.0,,30.2,,,2018
Al0.348 Co1 Cr1 Fe1 Ni1,,,,,,,,,,,,,,,,,,,,
,Al0.348 Co1 Cr1 Fe1 Ni1,159,10.1016/j.matchar.2018.06.036,CAST,,,,,,,,,T,25.0,242.0,529.0,47.0,,,2018
Al0.35 Cr0.5 Fe1 Mn0.625 Ni0.375,,,,,,,,,,,,,,,,,,,,
,Al0.35 Cr0.5 Fe1 Mn0.625 Ni0.375,149,10.1016/j.jallcom.2018.08.093,CAST,,,,,175.0,,,,C,25.0,942.0,,,,,2018
,Al0.35 Cr0.5 Fe1 Mn0.625 Ni0.375,149,10.1016/j.jallcom.2018.08.093,CAST,,,,,175.0,,,,C,400.0,833.0,,,,,2018
,Al0.35 Cr0.5 Fe1 Mn0.625 Ni0.375,149,10.1016/j.jallcom.2018.08.093,CAST,,,,,175.0,,,,C,600.0,326.0,,,,,2018
Al0.357 Co0.714 Cr0.714 Cu0.714 Fe0.714 Ni0.714 Ti1,,,,,,,,,,,,,,,,,,,,
,Al0.357 Co0.714 Cr0.714 Cu0.714 Fe0.714 Ni0.714 Ti1,24,10.2320/matertrans.47.1395,CAST,FCC+BCC+Sec.,,,,,6.8,,664.0,,25.0,,,,,,2006
Al0.357 Co0.714 Cr0.714 Cu0.714 Fe0.714 Ni0.714 V1,,,,,,,,,,,,,,,,,,,,
,Al0.357 Co0.714 Cr0.714 Cu0.714 Fe0.714 Ni0.714 V1,25,10.1007/s11661-006-0081-3,CAST,BCC,,,,,7.3,,577.0,,25.0,,,,,180.0,2006
Al0.364 Cr0.455 Fe0.455 Ni1,,,,,,,,,,,,,,,,,,,,
,Al0.364 Cr0.455 Fe0.455 Ni1,199,10.1016/j.jallcom.2018.08.176,CAST,,,,,,,,,T,25.0,479.0,956.0,12.7,,,2018
Al0.375 Co1 Cr1 Fe1 Ni1,,,,,,,,,,,,,,,,,,,,
,Al0.375 Co1 Cr1 Fe1 Ni1,54,10.1016/j.jallcom.2009.08.090,ANNEAL,FCC,,,,,7.5,,131.0,,25.0,,,,,211.0,2009
,Al0.375 Co1 Cr1 Fe1 Ni1,54,10.1016/j.jallcom.2009.08.090,ANNEAL,FCC,,,,,7.5,,196.0,,25.0,,,,,211.0,2009
Al0.38 Co1 Cr1 Fe1 Mn1 Ni1,,,,,,,,,,,,,,,,,,,,
,Al0.38 Co1 Cr1 Fe1 Mn1 Ni1,16,10.1016/j.actamat.2013.09.037,CAST,FCC,,,,,7.5,,182.0,T,25.0,244.0,,45.0,,209.0,2013
Al0.391 Co1 Cr1 Fe1 Ni1,,,,,,,,,,,,,,,,,,,,
,Al0.391 Co1 Cr1 Fe1 Ni1,159,10.1016/j.matchar.2018.06.036,CAST,,,,,,,,,T,25.0,275.0,610.0,36.0,,,2018
Al0.4 Cr0.5 Cu0.5 Fe0.5 Ni1,,,,,,,,,,,,,,,,,,,,
,Al0.4 Cr0.5 Cu0.5 Fe0.5 Ni1,33,10.1063/1.35872,,FCC,,,,,7.3,,,,25.0,,,,,186.0,2011
Al0.4 Hf0.6 Nb1 Ta1 Ti1 Zr1,,,,,,,,,,,,,,,,,,,,
,Al0.4 Hf0.6 Nb1 Ta1 Ti1 Zr1,39,10.1007/s11837-014-1066-0,OTHER,BCC,,,,140.0,9.1,,500.0,C,25.0,1841.0,2269.0,10.0,,110.0,2014
,Al0.4 Hf0.6 Nb1 Ta1 Ti1 Zr1,39,10.1007/s11837-014-1066-0,OTHER,BCC,,,,140.0,9.0,,,C,25.0,1841.0,2269.0,10.0,,,2014
,Al0.4 Hf0.6 Nb1 Ta1 Ti1 Zr1,39,10.1007/s11837-014-1066-0,OTHER,BCC,,,,140.0,9.0,,,C,800.0,796.0,834.0,50.0,,,2014
,Al0.4 Hf0.6 Nb1 Ta1 Ti1 Zr1,39,10.1007/s11837-014-1066-0,OTHER,BCC,,,,140.0,9.0,,,C,1000.0,298.0,455.0,50.0,,,2014
,Al0.4 Hf0.6 Nb1 Ta1 Ti1 Zr1,157,10.1016/j.actamat.2019.06.032,OTHER,BCC,,,,,,9.08,,C,23.0,1841.0,,,,,2019
,Al0.4 Hf0.6 Nb1 Ta1 Ti1 Zr1,157,10.1016/j.actamat.2019.06.032,OTHER,BCC,,,,,,9.08,,C,1000.0,298.0,,,,,2019
,Al0.4 Hf0.6 Nb1 Ta1 Ti1 Zr1,157,10.1016/j.actamat.2019.06.032,OTHER,BCC,,,,,,9.08,,C,1200.0,89.0,,,,,2019
Al0.417 Co0.833 Cr0.833 Cu0.833 Fe0.833 Ni0.833 Ti1,,,,,,,,,,,,,,,,,,,,
,Al0.417 Co0.833 Cr0.833 Cu0.833 Fe0.833 Ni0.833 Ti1,24,10.2320/matertrans.47.1395,CAST,FCC+BCC+Sec.,,,,,6.9,,646.0,,25.0,,,,,,2006
Al0.417 Co0.833 Cr0.833 Cu0.833 Fe0.833 Ni0.833 V1,,,,,,,,,,,,,,,,,,,,
,Al0.417 Co0.833 Cr0.833 Cu0.833 Fe0.833 Ni0.833 V1,25,10.1007/s11661-006-0081-3,CAST,BCC,,,,,7.3,,579.0,,25.0,,,,,182.0,2006
Al0.429 Ca0.286 Li1 Mg1 Si0.143,,,,,,,,,,,,,,,,,,,,
,Al0.429 Ca0.286 Li1 Mg1 Si0.143,105,10.3390/ma12071136,CAST,,,,,,,1.57,,C,25.0,418.0,,13.0,,,2019
Al0.429 Cr0.476 Fe0.476 Ni1,,,,,,,,,,,,,,,,,,,,
,Al0.429 Cr0.476 Fe0.476 Ni1,199,10.1016/j.jallcom.2018.08.176,CAST,,,,,,,,,T,25.0,610.0,1173.0,9.1,,,2018
Al0.43 Co1 Cr1 Fe1 Mn1 Ni1,,,,,,,,,,,,,,,,,,,,
,Al0.43 Co1 Cr1 Fe1 Mn1 Ni1,16,10.1016/j.actamat.2013.09.037,CAST,FCC+BCC,,,,,7.4,,183.0,T,25.0,285.0,,35.0,,208.0,2013
Al0.435 Co1 Cr1 Fe1 Ni1,,,,,,,,,,,,,,,,,,,,
,Al0.435 Co1 Cr1 Fe1 Ni1,159,10.1016/j.matchar.2018.06.036,CAST,,,,,,,,,T,25.0,320.0,700.0,30.0,,,2018
Al0.451 Co0.451 Cr0.451 Fe0.451 Ni1,,,,,,,,,,,,,,,,,,,,
,Al0.451 Co0.451 Cr0.451 Fe0.451 Ni1,159,10.1016/j.matchar.2018.06.036,,,,,,,,,,T,25.0,545.0,1110.0,20.0,,,2018
,Al0.451 Co0.451 Cr0.451 Fe0.451 Ni1,159,10.1016/j.matchar.2018.06.036,,,,,,,,,,T,-70.0,570.0,1143.0,18.0,,,2018
,Al0.451 Co0.451 Cr0.451 Fe0.451 Ni1,159,10.1016/j.matchar.2018.06.036,,,,,,,,,,T,-192.0,700.0,1000.0,9.0,,,2018
,Al0.451 Co0.451 Cr0.451 Fe0.451 Ni1,159,10.1016/j.matchar.2018.06.036,CAST,,,,,,,,,T,25.0,545.0,1110.0,20.0,,,2018
Al0.465 Co0.465 Cr0.465 Fe0.465 Ni1,,,,,,,,,,,,,,,,,,,,
,Al0.465 Co0.465 Cr0.465 Fe0.465 Ni1,159,10.1016/j.matchar.2018.06.036,,,,,,,,,,T,25.0,545.0,1050.0,16.5,,,2018
,Al0.465 Co0.465 Cr0.465 Fe0.465 Ni1,159,10.1016/j.matchar.2018.06.036,,,,,,,,,,T,-70.0,595.0,1168.0,15.8,,,2018
,Al0.465 Co0.465 Cr0.465 Fe0.465 Ni1,159,10.1016/j.matchar.2018.06.036,,,,,,,,,,T,-192.0,700.0,1000.0,7.0,,,2018
,Al0.465 Co0.465 Cr0.465 Fe0.465 Ni1,159,10.1016/j.matchar.2018.06.036,CAST,,,,,,,,,T,25.0,545.0,1050.0,16.5,,,2018
Al0.476 Co0.476 Cr0.476 Fe0.476 Ni1,,,,,,,,,,,,,,,,,,,,
,Al0.476 Co0.476 Cr0.476 Fe0.476 Ni1,107,10.1038/s41467-019-08460-2,WROUGHT,,,,,,,,,T,25.0,1263.0,,21.4,,,2019
,Al0.476 Co0.476 Cr0.476 Fe0.476 Ni1,107,10.1038/s41467-019-08460-2,WROUGHT,,,,,,,,,T,25.0,1154.0,,25.0,,,2019
,Al0.476 Co0.476 Cr0.476 Fe0.476 Ni1,107,10.1038/s41467-019-08460-2,WROUGHT,,,,,,,,,T,25.0,1490.0,,16.0,,,2019
Al0.49 Co1 Cr1 Fe1 Mn1 Ni1,,,,,,,,,,,,,,,,,,,,
,Al0.49 Co1 Cr1 Fe1 Mn1 Ni1,16,10.1016/j.actamat.2013.09.037,CAST,FCC+BCC,,,,,7.4,,220.0,T,25.0,331.0,,29.0,,206.0,2013
Al0.5 B0.2 Co1 Cr1 Cu1 Fe1 Ni1,,,,,,,,,,,,,,,,,,,,
,Al0.5 B0.2 Co1 Cr1 Cu1 Fe1 Ni1,23,10.1149/1.27441,CAST,,,,,,7.7,,415.0,,25.0,,,,,,2007
Al0.5 B0.6 Co1 Cr1 Cu1 Fe1 Ni1,,,,,,,,,,,,,,,,,,,,
,Al0.5 B0.6 Co1 Cr1 Cu1 Fe1 Ni1,23,10.1149/1.27441,CAST,,,,,,7.7,,505.0,,25.0,,,,,,2007
Al0.5 B1 Co1 Cr1 Cu1 Fe1 Ni1,,,,,,,,,,,,,,,,,,,,
,Al0.5 B1 Co1 Cr1 Cu1 Fe1 Ni1,23,10.1149/1.27441,CAST,,,,,,7.8,,736.0,,25.0,,,,,,2007
Al0.5 Co0.5 Cr0.5 Fe0.5 Mo0.25 Ni1,,,,,,,,,,,,,,,,,,,,
,Al0.5 Co0.5 Cr0.5 Fe0.5 Mo0.25 Ni1,11,10.1016/j.intermet.2012.09.008,CAST,FCC+Sec.,,,,,7.4,,395.0,,25.0,,,,,,2012
Al0.5 Co0.5 Cr0.5 Fe1 Mo0.25 Ni0.5,,,,,,,,,,,,,,,,,,,,
,Al0.5 Co0.5 Cr0.5 Fe1 Mo0.25 Ni0.5,10,10.1016/j.wear.2009.10.013,CAST,BCC+Sec.,,,,,7.2,,639.0,,25.0,,,,,,2009
Al0.5 Co0.5 Cu0.5 Fe0.5 Ni1,,,,,,,,,,,,,,,,,,,,
,Al0.5 Co0.5 Cu0.5 Fe0.5 Ni1,213,10.1016/j.jmst.2018.12.014,CAST,,,,,,,,299.2,C,25.0,544.0,,,,,2018
Al0.5 Co1 Cr0.5 Fe0.5 Mo0.25 Ni0.5,,,,,,,,,,,,,,,,,,,,
,Al0.5 Co1 Cr0.5 Fe0.5 Mo0.25 Ni0.5,9,10.1002/adem.200900171,CAST,FCC+BCC+Sec.,,,,200.0,7.3,,586.0,,25.0,,,,,,2010
Al0.5 Co1 Cr1 Cu0.5 Fe1 Ni1 Ti0.5,,,,,,,,,,,,,,,,,,,,
,Al0.5 Co1 Cr1 Cu0.5 Fe1 Ni1 Ti0.5,13,10.1016/j.jallcom.2008.11.059,CAST,FCC+BCC,,,,,7.1,,,C,25.0,1580.0,2389.0,,17.0,161.0,2008
Al0.5 Co1 Cr1 Cu1 Fe1,,,,,,,,,,,,,,,,,,,,
,Al0.5 Co1 Cr1 Cu1 Fe1,20,10.3166/acsm.31.633-648,,FCC,,,,,7.4,,207.0,,25.0,,,,,187.0,2019
Al0.5 Co1 Cr1 Cu1 Fe1 Ni1,,,,,,,,,,,,,,,,,,,,
,Al0.5 Co1 Cr1 Cu1 Fe1 Ni1,23,10.1149/1.27441,CAST,,,,,,7.6,,300.0,,25.0,,,,,193.0,2007
,Al0.5 Co1 Cr1 Cu1 Fe1 Ni1,24,10.2320/matertrans.47.1395,CAST,FCC,,,,,7.6,,225.0,,25.0,,,,,193.0,2006
,Al0.5 Co1 Cr1 Cu1 Fe1 Ni1,25,10.1007/s11661-006-0081-3,CAST,FCC,,,,,7.6,,215.0,,25.0,,,,,193.0,2006
,Al0.5 Co1 Cr1 Cu1 Fe1 Ni1,64,10.1007/s11661-005-0218-9,CAST,FCC,,,,,7.9,,,C,1000.0,150.0,,,,,2005
,Al0.5 Co1 Cr1 Cu1 Fe1 Ni1,64,10.1007/s11661-005-0218-9,CAST,FCC,,,,,7.9,,,C,25.0,388.0,,,,,2005
,Al0.5 Co1 Cr1 Cu1 Fe1 Ni1,64,10.1007/s11661-005-0218-9,CAST,FCC,,,,,7.9,,,C,300.0,411.0,,,,,2005
,Al0.5 Co1 Cr1 Cu1 Fe1 Ni1,64,10.1007/s11661-005-0218-9,CAST,FCC,,,,,7.9,,,C,500.0,421.0,,,,,2005
,Al0.5 Co1 Cr1 Cu1 Fe1 Ni1,64,10.1007/s11661-005-0218-9,CAST,FCC,,,,,7.9,,,C,700.0,426.0,,,,,2005
,Al0.5 Co1 Cr1 Cu1 Fe1 Ni1,64,10.1007/s11661-005-0218-9,CAST,FCC,,,,,7.9,,,C,900.0,230.0,,,,,2005
,Al0.5 Co1 Cr1 Cu1 Fe1 Ni1,64,10.1007/s11661-005-0218-9,CAST,FCC,,,,,7.9,,,C,1100.0,80.0,,,,,2005
,Al0.5 Co1 Cr1 Cu1 Fe1 Ni1,159,10.1016/j.matchar.2018.06.036,WROUGHT,,,,,,,,,T,25.0,1284.0,1344.0,7.6,,,2018
,Al0.5 Co1 Cr1 Cu1 Fe1 Ni1,159,10.1016/j.matchar.2018.06.036,WROUGHT,FCC,,,,,,,,T,25.0,1290.0,1400.0,5.0,,,2018
,Al0.5 Co1 Cr1 Cu1 Fe1 Ni1,159,10.1016/j.matchar.2018.06.036,WROUGHT,,,,,,,,,T,25.0,650.0,790.0,27.0,,,2018
,Al0.5 Co1 Cr1 Cu1 Fe1 Ni1,159,10.1016/j.matchar.2018.06.036,WROUGHT,FCC,,,,,,,,T,700.0,180.0,185.0,5.0,,,2018
,Al0.5 Co1 Cr1 Cu1 Fe1 Ni1,159,10.1016/j.matchar.2018.06.036,WROUGHT,,,,,,,,,T,700.0,160.0,180.0,12.0,,,2018
,Al0.5 Co1 Cr1 Cu1 Fe1 Ni1,147,10.1016/j.vacuum.2018.12.009,CAST,FCC,,,,,,,48.8,,,,,,,,2018
,Al0.5 Co1 Cr1 Cu1 Fe1 Ni1,208,10.1016/j.msea.2019.05.056,,FCC,,,,,,,200.0,,,,,,,,2019
,Al0.5 Co1 Cr1 Cu1 Fe1 Ni1,208,10.1016/j.msea.2019.05.056,,FCC,,,,,,,220.0,,,,,,,,2019
Al0.5 Co1 Cr1 Cu1 Fe1 Ni1 Ti0.2,,,,,,,,,,,,,,,,,,,,
,Al0.5 Co1 Cr1 Cu1 Fe1 Ni1 Ti0.2,24,10.2320/matertrans.47.1395,CAST,FCC,,,,,7.5,,272.0,,25.0,,,,,191.0,2006
Al0.5 Co1 Cr1 Cu1 Fe1 Ni1 Ti0.4,,,,,,,,,,,,,,,,,,,,
,Al0.5 Co1 Cr1 Cu1 Fe1 Ni1 Ti0.4,24,10.2320/matertrans.47.1395,CAST,FCC,,,,,7.3,,321.0,,25.0,,,,,188.0,2006
Al0.5 Co1 Cr1 Cu1 Fe1 Ni1 Ti0.6,,,,,,,,,,,,,,,,,,,,
,Al0.5 Co1 Cr1 Cu1 Fe1 Ni1 Ti0.6,24,10.2320/matertrans.47.1395,CAST,FCC+BCC,,,,,7.2,,458.0,,25.0,,,,,186.0,2006
Al0.5 Co1 Cr1 Cu1 Fe1 Ni1 Ti0.8,,,,,,,,,,,,,,,,,,,,
,Al0.5 Co1 Cr1 Cu1 Fe1 Ni1 Ti0.8,24,10.2320/matertrans.47.1395,CAST,FCC+Sec.,,,,,7.1,,590.0,,25.0,,,,,184.0,2006
Al0.5 Co1 Cr1 Cu1 Fe1 Ni1 Ti1,,,,,,,,,,,,,,,,,,,,
,Al0.5 Co1 Cr1 Cu1 Fe1 Ni1 Ti1,24,10.2320/matertrans.47.1395,CAST,FCC+BCC+Sec.,,,,,7.0,,636.0,,25.0,,,,,,2006
Al0.5 Co1 Cr1 Cu1 Fe1 Ni1 V0.2,,,,,,,,,,,,,,,,,,,,
,Al0.5 Co1 Cr1 Cu1 Fe1 Ni1 V0.2,25,10.1007/s11661-006-0081-3,CAST,FCC,,,,,7.6,,204.0,,25.0,,,,,191.0,2006
Al0.5 Co1 Cr1 Cu1 Fe1 Ni1 V0.4,,,,,,,,,,,,,,,,,,,,
,Al0.5 Co1 Cr1 Cu1 Fe1 Ni1 V0.4,25,10.1007/s11661-006-0081-3,CAST,FCC+BCC,,,,,7.5,,231.0,,25.0,,,,,189.0,2006
Al0.5 Co1 Cr1 Cu1 Fe1 Ni1 V0.5,,,,,,,,,,,,,,,,,,,,
,Al0.5 Co1 Cr1 Cu1 Fe1 Ni1 V0.5,208,10.1016/j.msea.2019.05.056,,,,,,,,,340.0,,,,,,,,2019
Al0.5 Co1 Cr1 Cu1 Fe1 Ni1 V0.6,,,,,,,,,,,,,,,,,,,,
,Al0.5 Co1 Cr1 Cu1 Fe1 Ni1 V0.6,25,10.1007/s11661-006-0081-3,CAST,FCC+BCC+Sec.,,,,,7.5,,328.0,,25.0,,,,,,2006
Al0.5 Co1 Cr1 Cu1 Fe1 Ni1 V0.8,,,,,,,,,,,,,,,,,,,,
,Al0.5 Co1 Cr1 Cu1 Fe1 Ni1 V0.8,25,10.1007/s11661-006-0081-3,CAST,FCC+BCC+Sec.,,,,,7.4,,447.0,,25.0,,,,,,2006
Al0.5 Co1 Cr1 Cu1 Fe1 Ni1 V1,,,,,,,,,,,,,,,,,,,,
,Al0.5 Co1 Cr1 Cu1 Fe1 Ni1 V1,25,10.1007/s11661-006-0081-3,CAST,FCC+BCC+Sec.,,,,,7.4,,639.0,,25.0,,,,,,2006
,Al0.5 Co1 Cr1 Cu1 Fe1 Ni1 V1,208,10.1016/j.msea.2019.05.056,,,,,,,,,640.0,,,,,,,,2019
Al0.5 Co1 Cr1 Fe1 Mn1 Ni1,,,,,,,,,,,,,,,,,,,,
,Al0.5 Co1 Cr1 Fe1 Mn1 Ni1,135,10.1016/j.jallcom.2018.10.168,CAST,,,,,,,,553.0,C,25.0,1932.0,,,3.8,,2018
,Al0.5 Co1 Cr1 Fe1 Mn1 Ni1,208,10.1016/j.msea.2019.05.056,,,,,,,,,,,,,,,,,2019
Al0.5 Co1 Cr1 Fe1 Mn1 Ni1 Ta0.2,,,,,,,,,,,,,,,,,,,,
,Al0.5 Co1 Cr1 Fe1 Mn1 Ni1 Ta0.2,208,10.1016/j.msea.2019.05.056,,,,,,,,,385.0,,,,,,,,2019
Al0.5 Co1 Cr1 Fe1 Mn1 Ni1 Ta0.4,,,,,,,,,,,,,,,,,,,,
,Al0.5 Co1 Cr1 Fe1 Mn1 Ni1 Ta0.4,208,10.1016/j.msea.2019.05.056,,,,,,,,,486.0,,,,,,,,2019
Al0.5 Co1 Cr1 Fe1 Mo0.5 Ni1,,,,,,,,,,,,,,,,,,,,
,Al0.5 Co1 Cr1 Fe1 Mo0.5 Ni1,63,10.1007/s11837-013-0753-6,CAST,FCC+Sec.,,,,,7.7,,425.0,,25.0,,,,,,2013
Al0.5 Co1 Cr1 Fe1 Ni1,,,,,,,,,,,,,,,,,,,,
,Al0.5 Co1 Cr1 Fe1 Ni1,54,10.1016/j.jallcom.2009.08.090,ANNEAL,FCC+BCC,,,,,7.3,,159.0,,25.0,,,,,208.0,2009
,Al0.5 Co1 Cr1 Fe1 Ni1,54,10.1016/j.jallcom.2009.08.090,ANNEAL,FCC+BCC,,,,,7.3,,209.0,,25.0,,,,,208.0,2009
,Al0.5 Co1 Cr1 Fe1 Ni1,159,10.1016/j.matchar.2018.06.036,CAST,,,,,,,,,T,25.0,500.0,980.0,19.0,,,2018
,Al0.5 Co1 Cr1 Fe1 Ni1,208,10.1016/j.msea.2019.05.056,,,,,,,,,250.0,,,,,,,,2019
Al0.5 Co1 Cr1 Fe1 Ni1 Ti0.5,,,,,,,,,,,,,,,,,,,,
,Al0.5 Co1 Cr1 Fe1 Ni1 Ti0.5,181,10.1016/j.jallcom.2019.07.100,,,,,,,,,,C,25.0,1100.0,,27.5,,,2019
,Al0.5 Co1 Cr1 Fe1 Ni1 Ti0.5,208,10.1016/j.msea.2019.05.056,,,,,,,,,640.0,,,,,,,,2019
Al0.5 Co1 Cr1 Fe1 Ni1 Ti1,,,,,,,,,,,,,,,,,,,,
,Al0.5 Co1 Cr1 Fe1 Ni1 Ti1,66,10.1016/j.msea.2008.12.053,CAST,BCC+Laves,,,,,6.6,,,C,25.0,,1600.0,,10.0,107.0,2008
Al0.5 Co1 Fe1 Ni1,,,,,,,,,,,,,,,,,,,,
,Al0.5 Co1 Fe1 Ni1,27,10.1016/j.jmmm.2014.07.023,CAST,FCC+BCC,,,,,7.4,,212.0,C,25.0,346.0,,,,187.0,2014
Al0.5 Co1 Fe1 Ni1 Ti0.5,,,,,,,,,,,,,,,,,,,,
,Al0.5 Co1 Fe1 Ni1 Ti0.5,208,10.1016/j.msea.2019.05.056,,FCC,,,,,,,733.0,,,,,,,,2019
Al0.5 Cr0.5 Cu0.5 Fe0.5 Ni1,,,,,,,,,,,,,,,,,,,,
,Al0.5 Cr0.5 Cu0.5 Fe0.5 Ni1,33,10.1063/1.35872,,FCC+BCC,,,,,7.1,,,,25.0,,,,,182.0,2011
Al0.5 Cr0.5 Fe0.5 Ni1,,,,,,,,,,,,,,,,,,,,
,Al0.5 Cr0.5 Fe0.5 Ni1,199,10.1016/j.jallcom.2018.08.176,CAST,,,,,,,,,T,25.0,774.0,1357.0,6.4,,,2018
Al0.5 Cr0.5 Fe1 Ni1,,,,,,,,,,,,,,,,,,,,
,Al0.5 Cr0.5 Fe1 Ni1,159,10.1016/j.matchar.2018.06.036,CAST,,,,,,,,,C,25.0,,,17.0,,,2018
Al0.5 Cr1 Cu1 Fe1 Ni1,,,,,,,,,,,,,,,,,,,,
,Al0.5 Cr1 Cu1 Fe1 Ni1,128,10.1007/s11665-018-3822-8,CAST,FCC,,,,,,,226.0,,,,,,,,2019
,Al0.5 Cr1 Cu1 Fe1 Ni1,128,10.1007/s11665-018-3822-8,WROUGHT,FCC,,,,,,,287.0,,,,,,,,2019
Al0.5 Cr1 Fe1 Mn1 Ni1,,,,,,,,,,,,,,,,,,,,
,Al0.5 Cr1 Fe1 Mn1 Ni1,101,10.1016/j.msea.2019.04.104,CAST,,,,,,,,353.0,C,25.0,1091.0,,50.0,,,2019
Al0.5 Hf1 Nb1 Ta1 Ti1 Zr1,,,,,,,,,,,,,,,,,,,,
,Al0.5 Hf1 Nb1 Ta1 Ti1 Zr1,40,10.1016/j.jallcom.2014.11.064,CAST,BCC,,,,86.0,9.3,,396.0,C,25.0,1302.0,,46.0,,97.0,2014
Al0.5 Mo0.5 Nb1 Ta0.5 Ti1 Zr1,,,,,,,,,,,,,,,,,,,,
,Al0.5 Mo0.5 Nb1 Ta0.5 Ti1 Zr1,78,10.1016/j.matdes.2017.11.033,OTHER,BCC+B2,,,,,7.6,,,C,1000.0,579.0,646.0,,,,2017
,Al0.5 Mo0.5 Nb1 Ta0.5 Ti1 Zr1,78,10.1016/j.matdes.2017.11.033,OTHER,BCC+B2,,,,,7.6,,,C,25.0,2350.0,2460.0,,,,2017
Al0.5 Mo1 Nb1 Ti1 V1,,,,,,,,,,,,,,,,,,,,
,Al0.5 Mo1 Nb1 Ti1 V1,41,10.3390/e16020870,CAST,BCC,,,,,6.8,,487.0,C,25.0,1625.0,1800.0,11.0,,158.0,2014
Al0.5 Nb1 Ta0.5 Ti1 Zr1,,,,,,,,,,,,,,,,,,,,
,Al0.5 Nb1 Ta0.5 Ti1 Zr1,204,10.1016/j.matlet.2019.03.075,WROUGHT,,,,,,,,,C,25.0,1500.0,,6.0,,,2019
,Al0.5 Nb1 Ta0.5 Ti1 Zr1,204,10.1016/j.matlet.2019.03.075,POWDER,BCC,,,,,,,,,,,,,,,2019
,Al0.5 Nb1 Ta0.5 Ti1 Zr1,204,10.1016/j.matlet.2019.03.075,WROUGHT,,,,,,,,,C,25.0,1200.0,,8.0,,,2019
,Al0.5 Nb1 Ta0.5 Ti1 Zr1,204,10.1016/j.matlet.2019.03.075,WROUGHT,,,,,,,,,C,25.0,2100.0,,12.0,,,2019
,Al0.5 Nb1 Ta0.5 Ti1 Zr1,204,10.1016/j.matlet.2019.03.075,WROUGHT,,,,,,,,,C,25.0,1740.0,,20.0,,,2019
,Al0.5 Nb1 Ta0.5 Ti1 Zr1,204,10.1016/j.matlet.2019.03.075,WROUGHT,,,,,,,,,C,25.0,1630.0,,12.0,,,2019
Al0.5 Nb1 Ta1 Ti1 V1,,,,,,,,,,,,,,,,,,,,
,Al0.5 Nb1 Ta1 Ti1 V1,42,10.1016/j.proeng.2012.03.043,CAST,BCC,,,,,8.5,,,C,25.0,1014.0,,,,97.0,2012
Al0.511 Co0.511 Cr0.511 Fe0.511 Ni1,,,,,,,,,,,,,,,,,,,,
,Al0.511 Co0.511 Cr0.511 Fe0.511 Ni1,159,10.1016/j.matchar.2018.06.036,,,,,,,,,,T,25.0,545.0,1030.0,16.5,,,2018
,Al0.511 Co0.511 Cr0.511 Fe0.511 Ni1,159,10.1016/j.matchar.2018.06.036,,,,,,,,,,T,-70.0,580.0,1034.0,10.5,,,2018
,Al0.511 Co0.511 Cr0.511 Fe0.511 Ni1,159,10.1016/j.matchar.2018.06.036,,,,,,,,,,T,-192.0,700.0,1000.0,4.0,,,2018
,Al0.511 Co0.511 Cr0.511 Fe0.511 Ni1,159,10.1016/j.matchar.2018.06.036,CAST,,,,,,,,,T,25.0,545.0,1030.0,16.5,,,2018
Al0.515 Cr0.515 Cu0.515 Fe0.515 Ni1,,,,,,,,,,,,,,,,,,,,
,Al0.515 Cr0.515 Cu0.515 Fe0.515 Ni1,159,10.1016/j.matchar.2018.06.036,CAST,,,,,,,,,C,25.0,,,30.0,,,2018
Al0.515 Cr0.515 Fe1 Ni1,,,,,,,,,,,,,,,,,,,,
,Al0.515 Cr0.515 Fe1 Ni1,159,10.1016/j.matchar.2018.06.036,CAST,,,,,,,,,T,25.0,796.0,1437.0,15.7,,,2018
Al0.544 C0.001 Co0.69 Fe1 Ni0.69,,,,,,,,,,,,,,,,,,,,
,Al0.544 C0.001 Co0.69 Fe1 Ni0.69,151,10.1016/j.scriptamat.2018.09.008,CAST,,,,11067.0,,,,,C,25.0,1202.0,,32.6,,,2018
Al0.545 Cr0.545 Fe0.515 Ni1 Ti0.273,,,,,,,,,,,,,,,,,,,,
,Al0.545 Cr0.545 Fe0.515 Ni1 Ti0.273,159,10.1016/j.matchar.2018.06.036,CAST,,,,,,,,,C,25.0,,,16.3,,,2018
,Al0.545 Cr0.545 Fe0.515 Ni1 Ti0.273,159,10.1016/j.matchar.2018.06.036,ANNEAL,,,,,,,,,C,25.0,,,19.8,,,2018
Al0.55 Co1 Cr1 Fe1 Mn1 Ni1 Ta0.6,,,,,,,,,,,,,,,,,,,,
,Al0.55 Co1 Cr1 Fe1 Mn1 Ni1 Ta0.6,208,10.1016/j.msea.2019.05.056,,,,,,,,,570.0,,,,,,,,2019
Al0.56 Co1 Cr1 Fe1 Mn1 Ni1,,,,,,,,,,,,,,,,,,,,
,Al0.56 Co1 Cr1 Fe1 Mn1 Ni1,16,10.1016/j.actamat.2013.09.037,CAST,FCC+BCC,,,,,7.3,,278.0,T,25.0,526.0,,16.0,,204.0,2013
Al0.562 Co0.938 Cr0.312 Fe0.312 Ni1,,,,,,,,,,,,,,,,,,,,
,Al0.562 Co0.938 Cr0.312 Fe0.312 Ni1,116,10.1007/s00339-019-2506-z,CAST,,,,,,,,305.4,C,25.0,1129.4,,16.7,,,2019
Al0.569 Ca0.143 Li0.857 Mg1 Si0.286 Y0.003,,,,,,,,,,,,,,,,,,,,
,Al0.569 Ca0.143 Li0.857 Mg1 Si0.286 Y0.003,105,10.3390/ma12071136,CAST,,,,,,,1.7,,C,25.0,556.0,,3.0,,,2019
Al0.581 Co0.968 Cr0.323 Fe0.323 Mo0.032 Ni1,,,,,,,,,,,,,,,,,,,,
,Al0.581 Co0.968 Cr0.323 Fe0.323 Mo0.032 Ni1,116,10.1007/s00339-019-2506-z,CAST,,,,,,,,357.3,C,25.0,1159.7,,18.2,,,2019
Al0.6 Co1 Cr0.333 Fe0.333 Mo0.067 Ni1,,,,,,,,,,,,,,,,,,,,
,Al0.6 Co1 Cr0.333 Fe0.333 Mo0.067 Ni1,116,10.1007/s00339-019-2506-z,CAST,,,,,,,,362.6,C,25.0,1250.8,,14.7,,,2019
Al0.6 Co1 Cr0.333 Fe0.333 Mo0.1 Ni0.967,,,,,,,,,,,,,,,,,,,,
,Al0.6 Co1 Cr0.333 Fe0.333 Mo0.1 Ni0.967,116,10.1007/s00339-019-2506-z,CAST,,,,,,,,359.7,C,25.0,1198.3,,14.5,,,2019
Al0.6 Co1 Cr1 Fe1 Ni1,,,,,,,,,,,,,,,,,,,,
,Al0.6 Co1 Cr1 Fe1 Ni1,137,10.1016/j.matdes.2019.107698,CAST,,,,,,,,228.0,,,,,,,,2019
Al0.6 Cr0.5 Cu0.5 Fe0.5 Ni1,,,,,,,,,,,,,,,,,,,,
,Al0.6 Cr0.5 Cu0.5 Fe0.5 Ni1,33,10.1063/1.35872,,FCC+BCC,,,,,6.9,,,,25.0,,,,,178.0,2011
Al0.6 Cr1 Fe1 Mn1 Ni1,,,,,,,,,,,,,,,,,,,,
,Al0.6 Cr1 Fe1 Mn1 Ni1,101,10.1016/j.msea.2019.04.104,CAST,,,,,,,,361.0,C,25.0,1130.0,,53.0,,,2019
Al0.6 Mo1 Ta1 Ti1 V1,,,,,,,,,,,,,,,,,,,,
,Al0.6 Mo1 Ta1 Ti1 V1,88,10.4028/www.scientific.net/MSF.898.638,CAST,BCC,,,,,8.6,,,C,25.0,962.0,1033.0,,,174.1,2017
Al0.62 Co1 Cr1 Fe1 Mn1 Ni1,,,,,,,,,,,,,,,,,,,,
[...]
Mo0.667 Nb0.667 Ti0.667 V1 Zr0.667,,,,,,,,,,,,,,,,,,,,
,Mo0.667 Nb0.667 Ti0.667 V1 Zr0.667,59,10.1007/s11837-012-0366-5,CAST,BCC,,,,,7.1,,,C,25.0,1735.0,3300.0,20.0,,147.0,2012
Mo0.7 Nb1 Ti1 V0.3 Zr1,,,,,,,,,,,,,,,,,,,,
,Mo0.7 Nb1 Ti1 V0.3 Zr1,58,10.1016/j.matdes.2015.06.072,ANNEAL,BCC,,,,,7.1,,,C,25.0,1436.0,,,27.0,,2015
Mo0.7 Nb1 Ti1 V1 Zr1,,,,,,,,,,,,,,,,,,,,
,Mo0.7 Nb1 Ti1 V1 Zr1,58,10.1016/j.matdes.2015.06.072,ANNEAL,BCC,,,,,7.0,,,C,25.0,1706.0,,,32.0,,2015
Mo1 Nb0.5 Ti0.5 V0.5 Zr0.5,,,,,,,,,,,,,,,,,,,,
,Mo1 Nb0.5 Ti0.5 V0.5 Zr0.5,58,10.1016/j.matdes.2015.06.072,ANNEAL,BCC,,,,,7.6,,,C,25.0,1765.0,,,12.0,,2015
Mo1 Nb0.588 Ti0.588 V0.588 Zr0.588,,,,,,,,,,,,,,,,,,,,
,Mo1 Nb0.588 Ti0.588 V0.588 Zr0.588,58,10.1016/j.matdes.2015.06.072,ANNEAL,BCC,,,,,7.5,,,C,25.0,1645.0,,,15.0,,2015
Mo1 Nb0.667 Ti0.667 V0.2 Zr0.667,,,,,,,,,,,,,,,,,,,,
,Mo1 Nb0.667 Ti0.667 V0.2 Zr0.667,58,10.1016/j.matdes.2015.06.072,ANNEAL,BCC,,,,,7.5,,,C,25.0,1576.0,,,8.0,,2015
Mo1 Nb0.667 Ti0.667 V0.667 Zr0.667,,,,,,,,,,,,,,,,,,,,
,Mo1 Nb0.667 Ti0.667 V0.667 Zr0.667,58,10.1016/j.matdes.2015.06.072,ANNEAL,BCC,,,,,7.4,,,C,25.0,1603.0,,,20.0,,2015
Mo1 Nb0.769 Ti0.769 V0.231 Zr0.769,,,,,,,,,,,,,,,,,,,,
,Mo1 Nb0.769 Ti0.769 V0.231 Zr0.769,58,10.1016/j.matdes.2015.06.072,ANNEAL,BCC,,,,,7.4,,,C,25.0,1603.0,,,20.0,,2015
Mo1 Nb0.769 Ti0.769 V0.769 Zr0.769,,,,,,,,,,,,,,,,,,,,
,Mo1 Nb0.769 Ti0.769 V0.769 Zr0.769,58,10.1016/j.matdes.2015.06.072,ANNEAL,BCC,,,,,7.3,,,C,25.0,1496.0,,,30.0,,2015
Mo1 Nb1 Re0.5 W1,,,,,,,,,,,,,,,,,,,,
,Mo1 Nb1 Re0.5 W1,176,10.1016/j.jallcom.2018.11.111,CAST,BCC,,,,,,,473.0,C,25.0,896.0,,10.4,7.08,,2018
Mo1 Nb1 Si0.25 Ta1 W1,,,,,,,,,,,,,,,,,,,,
,Mo1 Nb1 Si0.25 Ta1 W1,174,10.1007/s10853-018-03280-z,POWDER,,,,,,,,,C,25.0,1826.0,,16.7,10.5,,2019
,Mo1 Nb1 Si0.25 Ta1 W1,174,10.1007/s10853-018-03280-z,POWDER,,,,,,,,,C,1200.0,1071.0,,22.5,13.11,,2019
,Mo1 Nb1 Si0.25 Ta1 W1,205,10.1007/s10853-019-03567-9,POWDER,,,,,,,,567.0,C,25.0,1826.0,,16.5,10.5,,2019
,Mo1 Nb1 Si0.25 Ta1 W1,205,10.1007/s10853-019-03567-9,POWDER,,,,,,,,425.0,,200.0,,,,,,2019
,Mo1 Nb1 Si0.25 Ta1 W1,205,10.1007/s10853-019-03567-9,POWDER,,,,,,,,420.0,,400.0,,,,,,2019
,Mo1 Nb1 Si0.25 Ta1 W1,205,10.1007/s10853-019-03567-9,POWDER,,,,,,,,425.0,,600.0,,,,,,2019
,Mo1 Nb1 Si0.25 Ta1 W1,205,10.1007/s10853-019-03567-9,POWDER,,,,,,,,399.2,,800.0,,,,,,2019
Mo1 Nb1 Si0.5 Ta1 W1,,,,,,,,,,,,,,,,,,,,
,Mo1 Nb1 Si0.5 Ta1 W1,174,10.1007/s10853-018-03280-z,POWDER,,,,,,,,,C,25.0,1883.0,,11.0,5.8,,2019
,Mo1 Nb1 Si0.5 Ta1 W1,205,10.1007/s10853-019-03567-9,POWDER,,,,,,,,697.0,C,25.0,1883.0,,11.0,5.8,,2019
,Mo1 Nb1 Si0.5 Ta1 W1,205,10.1007/s10853-019-03567-9,POWDER,,,,,,,,535.0,,200.0,,,,,,2019
,Mo1 Nb1 Si0.5 Ta1 W1,205,10.1007/s10853-019-03567-9,POWDER,,,,,,,,560.0,,400.0,,,,,,2019
,Mo1 Nb1 Si0.5 Ta1 W1,205,10.1007/s10853-019-03567-9,POWDER,,,,,,,,540.0,,600.0,,,,,,2019
,Mo1 Nb1 Si0.5 Ta1 W1,205,10.1007/s10853-019-03567-9,POWDER,,,,,,,,550.5,,800.0,,,,,,2019
Mo1 Nb1 Si0.75 Ta1 W1,,,,,,,,,,,,,,,,,,,,
,Mo1 Nb1 Si0.75 Ta1 W1,174,10.1007/s10853-018-03280-z,POWDER,,,,,,,,,C,25.0,2483.0,,6.3,1.6,,2019
,Mo1 Nb1 Si0.75 Ta1 W1,205,10.1007/s10853-019-03567-9,POWDER,,,,,,,,682.6,C,25.0,2483.0,,6.2,1.6,,2019
,Mo1 Nb1 Si0.75 Ta1 W1,205,10.1007/s10853-019-03567-9,POWDER,,,,,,,,640.0,,200.0,,,,,,2019
,Mo1 Nb1 Si0.75 Ta1 W1,205,10.1007/s10853-019-03567-9,POWDER,,,,,,,,600.0,,400.0,,,,,,2019
,Mo1 Nb1 Si0.75 Ta1 W1,205,10.1007/s10853-019-03567-9,POWDER,,,,,,,,650.0,,600.0,,,,,,2019
,Mo1 Nb1 Si0.75 Ta1 W1,205,10.1007/s10853-019-03567-9,POWDER,,,,,,,,597.3,,800.0,,,,,,2019
,Mo1 Nb1 Si0.75 Ta1 W1,205,10.1007/s10853-019-03567-9,POWDER,,,,,,,,,C,1200.0,960.0,,22.7,,,2019
Mo1 Nb1 Ta1 Ti0.25 W1,,,,,,,,,,,,,,,,,,,,
,Mo1 Nb1 Ta1 Ti0.25 W1,91,10.1016/j.msea.2017.12.004,CAST,BCC,,,,,13.0,,478.3,C,25.0,1109.0,1197.0,,,249.4,2017
Mo1 Nb1 Ta1 Ti0.5 W1,,,,,,,,,,,,,,,,,,,,
,Mo1 Nb1 Ta1 Ti0.5 W1,91,10.1016/j.msea.2017.12.004,CAST,BCC,,,,,12.6,,481.2,C,25.0,1211.0,1578.0,,,242.0,2017
Mo1 Nb1 Ta1 Ti0.75 W1,,,,,,,,,,,,,,,,,,,,
,Mo1 Nb1 Ta1 Ti0.75 W1,91,10.1016/j.msea.2017.12.004,CAST,BCC,,,,,12.1,,495.6,C,25.0,1304.0,1593.0,,,235.4,2017
Mo1 Nb1 Ta1 Ti1,,,,,,,,,,,,,,,,,,,,
,Mo1 Nb1 Ta1 Ti1,215,10.1016/j.matdes.2018.06.003,ANNEAL,BCC,,,,,,,407.0,,,,,,,,2018
,Mo1 Nb1 Ta1 Ti1,215,10.1016/j.matdes.2018.06.003,CAST,BCC,,,,,,,431.0,,,,,,,,2018
,Mo1 Nb1 Ta1 Ti1,192,10.1016/j.actamat.2019.06.006,ANNEAL,BCC,80.0,5,,,,,,C,20.0,1210.0,,,,,2019
,Mo1 Nb1 Ta1 Ti1,192,10.1016/j.actamat.2019.06.006,ANNEAL,BCC,80.0,5,,,,,,C,60.0,1071.0,,,,,2019
,Mo1 Nb1 Ta1 Ti1,192,10.1016/j.actamat.2019.06.006,ANNEAL,BCC,80.0,5,,,,,,C,100.0,1029.0,,,,,2019
,Mo1 Nb1 Ta1 Ti1,192,10.1016/j.actamat.2019.06.006,ANNEAL,BCC,80.0,5,,,,,,C,200.0,868.0,,,,,2019
,Mo1 Nb1 Ta1 Ti1,192,10.1016/j.actamat.2019.06.006,ANNEAL,BCC,80.0,5,,,,,,C,300.0,732.0,,,,,2019
,Mo1 Nb1 Ta1 Ti1,192,10.1016/j.actamat.2019.06.006,ANNEAL,BCC,80.0,5,,,,,,C,400.0,685.0,,,,,2019
,Mo1 Nb1 Ta1 Ti1,192,10.1016/j.actamat.2019.06.006,ANNEAL,BCC,80.0,5,,,,,,C,600.0,593.0,,,,,2019
,Mo1 Nb1 Ta1 Ti1,192,10.1016/j.actamat.2019.06.006,ANNEAL,BCC,80.0,5,,,,,,C,800.0,564.0,,,,,2019
,Mo1 Nb1 Ta1 Ti1,192,10.1016/j.actamat.2019.06.006,ANNEAL,BCC,80.0,5,,,,,,C,1000.0,539.0,,,,,2019
Mo1 Nb1 Ta1 Ti1 V1,,,,,,,,,,,,,,,,,,,,
,Mo1 Nb1 Ta1 Ti1 V1,92,10.1016/j.jallcom.2016.11.188,CAST,BCC,,,,,9.3,,,C,25.0,1400.0,2450.0,,,172.8,2016
Mo1 Nb1 Ta1 Ti1 V1 W1,,,,,,,,,,,,,,,,,,,,
,Mo1 Nb1 Ta1 Ti1 V1 W1,93,10.1016/j.intermet.2017.01.007,CAST,BCC,,,,,10.9,,,C,600.0,973.0,1590.0,,,212.5,2017
,Mo1 Nb1 Ta1 Ti1 V1 W1,93,10.1016/j.intermet.2017.01.007,CAST,BCC,,,,,10.9,,,C,800.0,791.3,1180.0,,,,2017
,Mo1 Nb1 Ta1 Ti1 V1 W1,93,10.1016/j.intermet.2017.01.007,CAST,BCC,,,,,10.9,,,C,1000.0,752.8,1105.0,,,,2017
,Mo1 Nb1 Ta1 Ti1 V1 W1,93,10.1016/j.intermet.2017.01.007,CAST,BCC,,,,,10.9,,,C,1200.0,659.0,696.0,,,,2017
,Mo1 Nb1 Ta1 Ti1 V1 W1,93,10.1016/j.intermet.2017.01.007,CAST,BCC,,,,,10.9,,,C,25.0,1515.0,2135.0,,,,2017
,Mo1 Nb1 Ta1 Ti1 V1 W1,146,10.1016/j.jallcom.2018.11.318,CAST,,,,,,,,510.3,C,25.0,1515.0,,10.6,,,2018
,Mo1 Nb1 Ta1 Ti1 V1 W1,154,10.1016/j.intermet.2019.04.003,,,,,,,,,,,,,,,,164.0,2019
,Mo1 Nb1 Ta1 Ti1 V1 W1,157,10.1016/j.actamat.2019.06.032,CAST,BCC,,,,,,10.91,,C,23.0,1515.0,,,,,2019
,Mo1 Nb1 Ta1 Ti1 V1 W1,157,10.1016/j.actamat.2019.06.032,CAST,BCC,,,,,,10.91,,C,1000.0,753.0,,,,,2019
,Mo1 Nb1 Ta1 Ti1 V1 W1,157,10.1016/j.actamat.2019.06.032,CAST,BCC,,,,,,10.91,,C,1200.0,659.0,,,,,2019
Mo1 Nb1 Ta1 Ti1 W1,,,,,,,,,,,,,,,,,,,,
,Mo1 Nb1 Ta1 Ti1 W1,91,10.1016/j.msea.2017.12.004,CAST,BCC,,,,,11.7,,507.5,C,25.0,1455.0,1910.0,,,229.4,2017
,Mo1 Nb1 Ta1 Ti1 W1,93,10.1016/j.intermet.2017.01.007,CAST,BCC,,,,,11.7,,,C,600.0,689.0,1681.0,,,229.4,2017
,Mo1 Nb1 Ta1 Ti1 W1,93,10.1016/j.intermet.2017.01.007,CAST,BCC,,,,,11.7,,,C,800.0,674.0,1618.0,,,,2017
,Mo1 Nb1 Ta1 Ti1 W1,93,10.1016/j.intermet.2017.01.007,CAST,BCC,,,,,11.7,,,C,1000.0,620.0,1426.0,,,,2017
,Mo1 Nb1 Ta1 Ti1 W1,93,10.1016/j.intermet.2017.01.007,CAST,BCC,,,,,11.7,,,C,1200.0,586.0,814.0,,,,2017
,Mo1 Nb1 Ta1 Ti1 W1,93,10.1016/j.intermet.2017.01.007,CAST,BCC,,,,,11.7,,,C,25.0,1343.0,2005.0,,,,2017
,Mo1 Nb1 Ta1 Ti1 W1,215,10.1016/j.matdes.2018.06.003,ANNEAL,BCC,,,,,,,482.0,,,,,,,,2018
,Mo1 Nb1 Ta1 Ti1 W1,215,10.1016/j.matdes.2018.06.003,CAST,BCC,,,,,,,446.0,,,,,,,,2018
,Mo1 Nb1 Ta1 Ti1 W1,146,10.1016/j.jallcom.2018.11.318,CAST,,,,,,,,498.73,C,25.0,1343.0,,14.1,,,2018
,Mo1 Nb1 Ta1 Ti1 W1,154,10.1016/j.intermet.2019.04.003,,,,,,,,,,,,,,,,156.0,2019
,Mo1 Nb1 Ta1 Ti1 W1,157,10.1016/j.actamat.2019.06.032,CAST,BCC,,,,,,11.72,,C,23.0,1343.0,,,,,2019
,Mo1 Nb1 Ta1 Ti1 W1,157,10.1016/j.actamat.2019.06.032,CAST,BCC,,,,,,11.72,,C,1000.0,620.0,,,,,2019
,Mo1 Nb1 Ta1 Ti1 W1,157,10.1016/j.actamat.2019.06.032,CAST,BCC,,,,,,11.72,,C,1200.0,586.0,,,,,2019
Mo1 Nb1 Ta1 Ti1 Zr1,,,,,,,,,,,,,,,,,,,,
,Mo1 Nb1 Ta1 Ti1 Zr1,94,10.1016/j.msec.2016.12.057,CAST,BCC+BCC,,,,,9.1,,,C,25.0,1390.0,,,,,2016
,Mo1 Nb1 Ta1 Ti1 Zr1,95,10.1016/j.scriptamat.2016.10.028,ANNEAL,BCC+BCC,,,,,9.1,,,C,25.0,1100.0,1200.0,,,,2016
,Mo1 Nb1 Ta1 Ti1 Zr1,95,10.1016/j.scriptamat.2016.10.028,CAST,BCC+BCC,,,,,9.1,,,C,25.0,1375.0,1450.0,,,,2016
,Mo1 Nb1 Ta1 Ti1 Zr1,146,10.1016/j.jallcom.2018.11.318,CAST,,,,,,,,499.6,C,25.0,1390.0,,6.0,,,2018
Mo1 Nb1 Ta1 V1,,,,,,,,,,,,,,,,,,,,
,Mo1 Nb1 Ta1 V1,56,10.3390/e18050189,ANNEAL,BCC,,,,200.0,10.7,,504.0,C,25.0,1525.0,2400.0,21.0,,187.0,2016
Mo1 Nb1 Ta1 V1 W1,,,,,,,,,,,,,,,,,,,,
,Mo1 Nb1 Ta1 V1 W1,57,10.1016/j.intermet.2011.01.004,CAST,BCC,,,,80.0,12.4,,536.0,C,25.0,1246.0,1270.0,2.0,,232.0,2011
,Mo1 Nb1 Ta1 V1 W1,57,10.1016/j.intermet.2011.01.004,CAST,BCC,,,,,12.4,,,C,600.0,862.0,,13.0,,,2011
,Mo1 Nb1 Ta1 V1 W1,57,10.1016/j.intermet.2011.01.004,CAST,BCC,,,,,12.4,,,C,800.0,846.0,,17.0,,,2011
,Mo1 Nb1 Ta1 V1 W1,57,10.1016/j.intermet.2011.01.004,CAST,BCC,,,,,12.4,,,C,1000.0,842.0,,19.0,,,2011
,Mo1 Nb1 Ta1 V1 W1,57,10.1016/j.intermet.2011.01.004,CAST,BCC,,,,,12.4,,,C,1200.0,735.0,,7.5,,,2011
,Mo1 Nb1 Ta1 V1 W1,57,10.1016/j.intermet.2011.01.004,CAST,BCC,,,,,12.4,,,C,1400.0,656.0,,40.0,,,2011
,Mo1 Nb1 Ta1 V1 W1,57,10.1016/j.intermet.2011.01.004,CAST,BCC,,,,,12.4,,,C,1600.0,477.0,,40.0,,,2011
,Mo1 Nb1 Ta1 V1 W1,96,10.1016/j.msea.2017.12.021,POWDER,BCC,,,,,12.3,,,C,25.0,2612.0,3472.0,,,231.8,2017
,Mo1 Nb1 Ta1 V1 W1,146,10.1016/j.jallcom.2018.11.318,POWDER,,,,,,,,1010.0,C,25.0,3416.0,,5.3,,,2018
,Mo1 Nb1 Ta1 V1 W1,146,10.1016/j.jallcom.2018.11.318,POWDER,,,,,,,,,C,25.0,2612.0,,8.8,,,2018
,Mo1 Nb1 Ta1 V1 W1,146,10.1016/j.jallcom.2018.11.318,CAST,,,,,,,,535.3,C,25.0,1246.0,,1.7,,,2018
,Mo1 Nb1 Ta1 V1 W1,157,10.1016/j.actamat.2019.06.032,OTHER,BCC,,,,,,12.29,,C,23.0,1246.0,,,,,2019
,Mo1 Nb1 Ta1 V1 W1,157,10.1016/j.actamat.2019.06.032,OTHER,BCC,,,,,,12.29,,C,1000.0,842.0,,,,,2019
,Mo1 Nb1 Ta1 V1 W1,157,10.1016/j.actamat.2019.06.032,OTHER,BCC,,,,,,12.29,,C,1200.0,735.0,,,,,2019
,Mo1 Nb1 Ta1 V1 W1,163,10.1016/j.ijrmhm.2019.02.009,CAST,BCC,,,,,,12.29,535.0,C,25.0,1246.0,,,,,2019
Mo1 Nb1 Ta1 W1,,,,,,,,,,,,,,,,,,,,
,Mo1 Nb1 Ta1 W1,57,10.1016/j.intermet.2011.01.004,CAST,BCC,,,,200.0,13.7,,454.0,C,25.0,1058.0,1211.0,2.0,,258.0,2011
,Mo1 Nb1 Ta1 W1,57,10.1016/j.intermet.2011.01.004,CAST,BCC,,,,,13.8,,,C,600.0,561.0,,40.0,,,2011
,Mo1 Nb1 Ta1 W1,57,10.1016/j.intermet.2011.01.004,CAST,BCC,,,,,13.8,,,C,800.0,552.0,,40.0,,,2011
,Mo1 Nb1 Ta1 W1,57,10.1016/j.intermet.2011.01.004,CAST,BCC,,,,,13.8,,,C,1000.0,548.0,,40.0,,,2011
,Mo1 Nb1 Ta1 W1,57,10.1016/j.intermet.2011.01.004,CAST,BCC,,,,,13.8,,,C,1200.0,506.0,,40.0,,,2011
,Mo1 Nb1 Ta1 W1,57,10.1016/j.intermet.2011.01.004,CAST,BCC,,,,,13.8,,,C,1400.0,421.0,,40.0,,,2011
,Mo1 Nb1 Ta1 W1,57,10.1016/j.intermet.2011.01.004,CAST,BCC,,,,,13.8,,,C,1600.0,405.0,,40.0,,,2011
,Mo1 Nb1 Ta1 W1,91,10.1016/j.msea.2017.12.004,CAST,BCC,,,,,13.6,,,C,25.0,996.0,1148.0,,,257.8,2017
,Mo1 Nb1 Ta1 W1,157,10.1016/j.actamat.2019.06.032,OTHER,BCC,,,,,,13.6,,C,23.0,996.0,,,,,2019
,Mo1 Nb1 Ta1 W1,157,10.1016/j.actamat.2019.06.032,OTHER,BCC,,,,,,13.6,,C,1000.0,548.0,,,,,2019
,Mo1 Nb1 Ta1 W1,157,10.1016/j.actamat.2019.06.032,OTHER,BCC,,,,,,13.6,,C,1200.0,506.0,,,,,2019
,Mo1 Nb1 Ta1 W1,174,10.1007/s10853-018-03280-z,POWDER,BCC,,,,,,,,C,25.0,1217.0,,7.6,3.8,,2019
,Mo1 Nb1 Ta1 W1,191,10.1016/j.msea.2019.138140,POWDER,BCC,,,,,,,830.0,,,,,,,,2019
,Mo1 Nb1 Ta1 W1,191,10.1016/j.msea.2019.138140,ANNEAL,BCC,,,,,,,1450.0,,,,,,,,2019
,Mo1 Nb1 Ta1 W1,191,10.1016/j.msea.2019.138140,ANNEAL,BCC,,,,,,,1630.0,,,,,,,,2019
,Mo1 Nb1 Ta1 W1,191,10.1016/j.msea.2019.138140,ANNEAL,BCC,,,,,,,815.0,,,,,,,,2019
,Mo1 Nb1 Ta1 W1,191,10.1016/j.msea.2019.138140,ANNEAL,,,,,,,,700.0,,,,,,,,2019
,Mo1 Nb1 Ta1 W1,205,10.1007/s10853-019-03567-9,POWDER,BCC,,,,,,,504.5,C,25.0,1217.0,,7.5,3.8,,2019
,Mo1 Nb1 Ta1 W1,205,10.1007/s10853-019-03567-9,POWDER,BCC,,,,,,,420.0,,200.0,,,,,,2019
,Mo1 Nb1 Ta1 W1,205,10.1007/s10853-019-03567-9,POWDER,BCC,,,,,,,425.0,,400.0,,,,,,2019
,Mo1 Nb1 Ta1 W1,205,10.1007/s10853-019-03567-9,POWDER,BCC,,,,,,,340.0,,600.0,,,,,,2019
,Mo1 Nb1 Ta1 W1,205,10.1007/s10853-019-03567-9,POWDER,BCC,,,,,,,335.5,,800.0,,,,,,2019
Mo1 Nb1 Ti1,,,,,,,,,,,,,,,,,,,,
,Mo1 Nb1 Ti1,157,10.1016/j.actamat.2019.06.032,OTHER,BCC,,,,,,7.67,,C,23.0,1100.0,,,,,2019
,Mo1 Nb1 Ti1,157,10.1016/j.actamat.2019.06.032,OTHER,BCC,,,,,,7.67,,C,1000.0,504.0,,,,,2019
,Mo1 Nb1 Ti1,157,10.1016/j.actamat.2019.06.032,OTHER,BCC,,,,,,7.67,,C,1200.0,324.0,,,,,2019
Mo1 Nb1 Ti1 V0.25 Zr1,,,,,,,,,,,,,,,,,,,,
,Mo1 Nb1 Ti1 V0.25 Zr1,59,10.1007/s11837-012-0366-5,CAST,BCC,,,,,7.3,,,C,25.0,1776.0,3893.0,30.0,,153.0,2012
Mo1 Nb1 Ti1 V0.3 Zr1,,,,,,,,,,,,,,,,,,,,
,Mo1 Nb1 Ti1 V0.3 Zr1,58,10.1016/j.matdes.2015.06.072,ANNEAL,BCC,,,,,7.3,,,C,25.0,1455.0,,,25.0,,2015
Mo1 Nb1 Ti1 V0.5 Zr1,,,,,,,,,,,,,,,,,,,,
,Mo1 Nb1 Ti1 V0.5 Zr1,59,10.1007/s11837-012-0366-5,CAST,BCC,,,,,7.2,,,C,25.0,1647.0,3307.0,28.0,,152.0,2012
Mo1 Nb1 Ti1 V0.75 Zr1,,,,,,,,,,,,,,,,,,,,
,Mo1 Nb1 Ti1 V0.75 Zr1,59,10.1007/s11837-012-0366-5,CAST,BCC,,,,,7.2,,,C,25.0,1708.0,3929.0,29.0,,150.0,2012
Mo1 Nb1 Ti1 V1,,,,,,,,,,,,,,,,,,,,
,Mo1 Nb1 Ti1 V1,41,10.3390/e16020870,CAST,BCC,,,,,7.3,,441.0,C,25.0,1200.0,2050.0,26.0,,170.0,2014
Mo1 Nb1 Ti1 V1 Zr1,,,,,,,,,,,,,,,,,,,,
,Mo1 Nb1 Ti1 V1 Zr1,58,10.1016/j.matdes.2015.06.072,ANNEAL,BCC,,,,,7.1,,,C,25.0,1779.0,,,32.0,,2015
,Mo1 Nb1 Ti1 V1 Zr1,59,10.1007/s11837-012-0366-5,CAST,BCC,,,,,7.1,,,C,25.0,1786.0,3828.0,26.0,,149.0,2012
,Mo1 Nb1 Ti1 V1 Zr1,157,10.1016/j.actamat.2019.06.032,OTHER,,,,,,,7.27,,C,23.0,1706.0,,,,,2019
,Mo1 Nb1 Ti1 V1 Zr1,157,10.1016/j.actamat.2019.06.032,OTHER,,,,,,,7.27,,C,1000.0,467.0,,,,,2019
,Mo1 Nb1 Ti1 V1 Zr1,157,10.1016/j.actamat.2019.06.032,OTHER,,,,,,,7.27,,C,1200.0,116.0,,,,,2019
Mo1 Nb1 Ti1 Zr1,,,,,,,,,,,,,,,,,,,,
,Mo1 Nb1 Ti1 Zr1,59,10.1007/s11837-012-0366-5,CAST,BCC,,,,,7.3,,,C,25.0,1592.0,3450.0,34.0,,155.0,2012
Mo1 Ta1 Ti1 V1,,,,,,,,,,,,,,,,,,,,
,Mo1 Ta1 Ti1 V1,88,10.4028/www.scientific.net/MSF.898.638,CAST,BCC,,,,,9.5,,,C,25.0,1221.0,1454.0,,,189.8,2017
Nb0.333 Ta0.667 Ti0.667 Zr1,,,,,,,,,,,,,,,,,,,,
,Nb0.333 Ta0.667 Ti0.667 Zr1,121,10.3390/e21020114,CAST,,,,,500.0,,,489.0,T,25.0,,843.0,0.0,,93.0,2019
Nb0.5 Ti0.5 V1 Zr0.5,,,,,,,,,,,,,,,,,,,,
,Nb0.5 Ti0.5 V1 Zr0.5,45,10.1016/j.msea.2012.12.018,OTHER,BCC,,,,550.0,6.4,,304.0,C,25.0,918.0,,50.0,,109.0,2012
,Nb0.5 Ti0.5 V1 Zr0.5,45,10.1016/j.msea.2012.12.018,OTHER,BCC,,,,,6.3,,,C,25.0,918.0,,50.0,,,2012
,Nb0.5 Ti0.5 V1 Zr0.5,45,10.1016/j.msea.2012.12.018,OTHER,BCC,,,,,6.3,,,C,600.0,571.0,,50.0,,,2012
,Nb0.5 Ti0.5 V1 Zr0.5,45,10.1016/j.msea.2012.12.018,OTHER,BCC,,,,,6.3,,,C,800.0,240.0,,50.0,,,2012
,Nb0.5 Ti0.5 V1 Zr0.5,45,10.1016/j.msea.2012.12.018,OTHER,BCC,,,,,6.3,,,C,1000.0,72.0,,50.0,,,2012
Nb1 Re0.3 Ti1 Zr1,,,,,,,,,,,,,,,,,,,,
,Nb1 Re0.3 Ti1 Zr1,157,10.1016/j.actamat.2019.06.032,OTHER,,,,,,,7.81,,C,23.0,1244.0,,,,,2019
,Nb1 Re0.3 Ti1 Zr1,157,10.1016/j.actamat.2019.06.032,OTHER,,,,,,,7.81,,C,1000.0,323.0,,,,,2019
,Nb1 Re0.3 Ti1 Zr1,157,10.1016/j.actamat.2019.06.032,OTHER,,,,,,,7.81,,C,1200.0,89.0,,,,,2019
Nb1 Ta0.3 Ti1 Zr1,,,,,,,,,,,,,,,,,,,,
,Nb1 Ta0.3 Ti1 Zr1,157,10.1016/j.actamat.2019.06.032,OTHER,BCC,,,,,,7.81,,C,23.0,882.0,,,,,2019
,Nb1 Ta0.3 Ti1 Zr1,157,10.1016/j.actamat.2019.06.032,OTHER,BCC,,,,,,7.81,,C,1000.0,274.0,,,,,2019
,Nb1 Ta0.3 Ti1 Zr1,157,10.1016/j.actamat.2019.06.032,OTHER,BCC,,,,,,7.81,,C,1200.0,102.0,,,,,2019
Nb1 Ta0.667 Ti0.667 Zr0.333,,,,,,,,,,,,,,,,,,,,
,Nb1 Ta0.667 Ti0.667 Zr0.333,121,10.3390/e21020114,CAST,,,,,500.0,,,294.0,T,25.0,822.0,852.0,0.33,,127.0,2019
Nb1 Ta1 Ti1,,,,,,,,,,,,,,,,,,,,
,Nb1 Ta1 Ti1,192,10.1016/j.actamat.2019.06.006,WROUGHT,BCC,100.0,5,,,,,,C,20.0,573.0,,,,,2019
,Nb1 Ta1 Ti1,192,10.1016/j.actamat.2019.06.006,WROUGHT,BCC,100.0,5,,,,,,C,100.0,486.0,,,,,2019
,Nb1 Ta1 Ti1,192,10.1016/j.actamat.2019.06.006,WROUGHT,BCC,100.0,5,,,,,,C,200.0,378.0,,,,,2019
,Nb1 Ta1 Ti1,192,10.1016/j.actamat.2019.06.006,WROUGHT,BCC,100.0,5,,,,,,C,300.0,314.0,,,,,2019
,Nb1 Ta1 Ti1,192,10.1016/j.actamat.2019.06.006,WROUGHT,BCC,100.0,5,,,,,,C,400.0,232.0,,,,,2019
,Nb1 Ta1 Ti1,192,10.1016/j.actamat.2019.06.006,WROUGHT,BCC,100.0,5,,,,,,C,600.0,222.0,,,,,2019
,Nb1 Ta1 Ti1,192,10.1016/j.actamat.2019.06.006,WROUGHT,BCC,100.0,5,,,,,,C,800.0,210.0,,,,,2019
,Nb1 Ta1 Ti1,192,10.1016/j.actamat.2019.06.006,WROUGHT,BCC,100.0,5,,,,,,C,1000.0,160.0,,,,,2019
,Nb1 Ta1 Ti1,121,10.3390/e21020114,CAST,BCC,,,,500.0,,,246.0,T,25.0,620.0,683.0,18.5,,143.0,2019
Nb1 Ta1 Ti1 V1,,,,,,,,,,,,,,,,,,,,
,Nb1 Ta1 Ti1 V1,42,10.1016/j.proeng.2012.03.043,CAST,BCC,,,,,9.2,,,C,25.0,1092.0,,,,106.0,2012
,Nb1 Ta1 Ti1 V1,97,10.1016/j.msea.2016.07.102,CAST,BCC,,,,,9.1,,,C,25.0,965.0,,,,133.8,2016
,Nb1 Ta1 Ti1 V1,127,10.1016/j.jallcom.2018.10.230,POWDER,BCC,,,,24.0,,,427.9,C,25.0,1108.0,,28.3,,,2018
,Nb1 Ta1 Ti1 V1,127,10.1016/j.jallcom.2018.10.230,POWDER,BCC,,,,30.0,,,444.3,C,25.0,1308.0,,27.9,,,2018
,Nb1 Ta1 Ti1 V1,127,10.1016/j.jallcom.2018.10.230,POWDER,BCC,4800.0,,1900.0,38.0,,,510.9,C,25.0,1373.0,,29.5,,,2018
Nb1 Ta1 Ti1 V1 W1,,,,,,,,,,,,,,,,,,,,
,Nb1 Ta1 Ti1 V1 W1,97,10.1016/j.msea.2016.07.102,CAST,BCC,,,,,11.0,,,C,25.0,1420.0,1800.0,20.0,,189.2,2016
Nb1 Ta1 Ti1 V1 Zr1,,,,,,,,,,,,,,,,,,,,
,Nb1 Ta1 Ti1 V1 Zr1,157,10.1016/j.actamat.2019.06.032,OTHER,,,,,,,8.43,,C,23.0,1395.0,,,,,2019
,Nb1 Ta1 Ti1 V1 Zr1,157,10.1016/j.actamat.2019.06.032,OTHER,,,,,,,8.43,,C,1000.0,190.0,,,,,2019
,Nb1 Ta1 Ti1 V1 Zr1,157,10.1016/j.actamat.2019.06.032,OTHER,,,,,,,8.43,,C,1200.0,78.0,,,,,2019
Nb1 Ta1 Ti1 W1,,,,,,,,,,,,,,,,,,,,
,Nb1 Ta1 Ti1 W1,192,10.1016/j.actamat.2019.06.006,ANNEAL,BCC,90.0,5,,,,,,C,20.0,1054.0,,,,,2019
,Nb1 Ta1 Ti1 W1,192,10.1016/j.actamat.2019.06.006,ANNEAL,BCC,90.0,5,,,,,,C,100.0,968.0,,,,,2019
,Nb1 Ta1 Ti1 W1,192,10.1016/j.actamat.2019.06.006,ANNEAL,BCC,90.0,5,,,,,,C,200.0,869.0,,,,,2019
,Nb1 Ta1 Ti1 W1,192,10.1016/j.actamat.2019.06.006,ANNEAL,BCC,90.0,5,,,,,,C,300.0,754.0,,,,,2019
,Nb1 Ta1 Ti1 W1,192,10.1016/j.actamat.2019.06.006,ANNEAL,BCC,90.0,5,,,,,,C,400.0,627.0,,,,,2019
,Nb1 Ta1 Ti1 W1,192,10.1016/j.actamat.2019.06.006,ANNEAL,BCC,90.0,5,,,,,,C,600.0,596.0,,,,,2019
,Nb1 Ta1 Ti1 W1,192,10.1016/j.actamat.2019.06.006,ANNEAL,BCC,90.0,5,,,,,,C,800.0,564.0,,,,,2019
,Nb1 Ta1 Ti1 W1,192,10.1016/j.actamat.2019.06.006,ANNEAL,BCC,90.0,5,,,,,,C,1000.0,459.0,,,,,2019
Nb1 Ta1 Ti1 Zr1,,,,,,,,,,,,,,,,,,,,
,Nb1 Ta1 Ti1 Zr1,121,10.3390/e21020114,CAST,BCC,,,,500.0,,,358.0,T,25.0,1144.0,1205.0,6.4,,98.0,2019
Nb1 Ta1 V1 W1,,,,,,,,,,,,,,,,,,,,
,Nb1 Ta1 V1 W1,97,10.1016/j.msea.2016.07.102,CAST,BCC,,,,,12.8,,,C,25.0,1530.0,1700.0,12.0,,207.5,2016
Nb1 Ti1 V0.3 Zr1,,,,,,,,,,,,,,,,,,,,
,Nb1 Ti1 V0.3 Zr1,58,10.1016/j.matdes.2015.06.072,ANNEAL,BCC,,,,,6.5,,,C,25.0,866.0,,,45.0,,2015
Nb1 Ti1 V1 Zr1,,,,,,,,,,,,,,,,,,,,
,Nb1 Ti1 V1 Zr1,45,10.1016/j.msea.2012.12.018,OTHER,BCC,,,,550.0,6.5,,335.0,C,25.0,1105.0,,50.0,,104.0,2012
,Nb1 Ti1 V1 Zr1,45,10.1016/j.msea.2012.12.018,OTHER,BCC,,,,,6.5,,,C,25.0,1105.0,,50.0,,,2012
,Nb1 Ti1 V1 Zr1,45,10.1016/j.msea.2012.12.018,OTHER,BCC,,,,,6.5,,,C,600.0,834.0,,50.0,,,2012
,Nb1 Ti1 V1 Zr1,45,10.1016/j.msea.2012.12.018,OTHER,BCC,,,,,6.5,,,C,800.0,187.0,,50.0,,,2012
,Nb1 Ti1 V1 Zr1,45,10.1016/j.msea.2012.12.018,OTHER,BCC,,,,,6.5,,,C,1000.0,58.0,,50.0,,,2012
,Nb1 Ti1 V1 Zr1,58,10.1016/j.matdes.2015.06.072,ANNEAL,BCC,,,,,6.5,,,C,25.0,1104.0,,,50.0,,2015
,Nb1 Ti1 V1 Zr1,133,10.1080/02670836.2018.1446267,,,,,,,,6.52,335.0,C,25.0,1105.0,,50.0,,,2018
Nb1 Ti1 Zr1,,,,,,,,,,,,,,,,,,,,
,Nb1 Ti1 Zr1,157,10.1016/j.actamat.2019.06.032,OTHER,BCC,,,,,,6.63,,C,23.0,975.0,,,,,2019
,Nb1 Ti1 Zr1,157,10.1016/j.actamat.2019.06.032,OTHER,BCC,,,,,,6.63,,C,1000.0,141.0,,,,,2019
,Nb1 Ti1 Zr1,157,10.1016/j.actamat.2019.06.032,OTHER,BCC,,,,,,6.63,,C,1200.0,61.0,,,,,2019
,Nb1 Ti1 Zr1,184,10.1007/s12598-019-01310-6,CAST,BCC,,,,,,,372.0,C,25.0,1223.0,,48.0,,,2019
,Nb1 Ti1 Zr1,184,10.1007/s12598-019-01310-6,ANNEAL,BCC,,,,300.0,,,,,,,,,,,2019
,Nb1 Ti1 Zr1,184,10.1007/s12598-019-01310-6,CAST,BCC,,,,,,,,C,1073.0,462.0,,51.0,,,2019
,Nb1 Ti1 Zr1,184,10.1007/s12598-019-01310-6,CAST,BCC,,,,,,,,C,1273.0,218.0,,51.0,,,2019
,Nb1 Ti1 Zr1,121,10.3390/e21020114,CAST,BCC,,,,500.0,,,295.0,T,25.0,956.0,991.0,14.2,,88.0,2019
Ta1 Ti1 Zr1,,,,,,,,,,,,,,,,,,,,
,Ta1 Ti1 Zr1,121,10.3390/e21020114,CAST,,,,,500.0,,,485.0,T,25.0,,284.0,0.0,,157.0,2019