File: stats_and_tables/MPEA_dataset_for_stats.csv
Unnamed: 0,REFERENCE: tag,REFERENCE: doi_x,FORMULA,PROPERTY: Type of phases,PROPERTY: Single/Multiphase,PROPERTY: synthesis method,PROPERTY: grain size ($\mu$m),PROPERTY: ROM Density (g/cm$^3$),PROPERTY: HV,PROPERTY: Type of test,PROPERTY: Test temperature ($^\circ$C),PROPERTY: YS (MPa),PROPERTY: UTS (MPa),PROPERTY: Elongation (%),PROPERTY: Elongation plastic (%),PROPERTY: ROM Young modulus (GPa),PROPERTY: Exp. Young modulus (GPa),PROPERTY: O content (wppm),PROPERTY: N content (wppm),PROPERTY: C content (wppm),REFERENCE: comment,Internal Reference #,Original DOI,PROPERTY: Exp. Density (g/cm$^3$),Unnamed: 22,IDENTIFIER: Reference ID,REFERENCE: title,REFERENCE: year,REFERENCE: doi_y,REFERENCE: url,REFERENCE: doi,PROPERTY: BCC/FCC/other,PROPERTY: Processing method,PROPERTY: Microstructure,PROPERTY: Calculated Density (g/cm$^3$),PROPERTY: Calculated Young modulus (GPa)
0,4,10.1016/j.jmmm.2014.07.023,Al0.25 Co1 Fe1 Ni1,FCC,S,AC,,7.9,138.0,C,25.0,158.0,,,,196.0,,,,,,,,,,27,Effects of Al and Si addition on the structure and properties of CoFeNi equal atomic ratio alloy,2014,10.1016/j.jmmm.2014.07.023,http://dx.doi.org/10.1016/j.jmmm.2014.07.023,10.1016/j.jmmm.2014.07.023,FCC,CAST,FCC,7.9,192
1,4,10.1016/j.jmmm.2014.07.023,Al0.5 Co1 Fe1 Ni1,FCC+BCC,M,AC,,7.4,212.0,C,25.0,346.0,,,,187.0,,,,,,,,,,27,Effects of Al and Si addition on the structure and properties of CoFeNi equal atomic ratio alloy,2014,10.1016/j.jmmm.2014.07.023,http://dx.doi.org/10.1016/j.jmmm.2014.07.023,10.1016/j.jmmm.2014.07.023,other,CAST,FCC+BCC,7.4,
2,4,10.1016/j.jmmm.2014.07.023,Al0.75 Co1 Fe1 Ni1,FCC+BCC,M,AC,,7.0,385.0,C,25.0,794.0,,,,179.0,,,,,,,,,,27,Effects of Al and Si addition on the structure and properties of CoFeNi equal atomic ratio alloy,2014,10.1016/j.jmmm.2014.07.023,http://dx.doi.org/10.1016/j.jmmm.2014.07.023,10.1016/j.jmmm.2014.07.023,other,CAST,FCC+BCC,7.0,
3,4,10.1016/j.jmmm.2014.07.023,Al1 Co1 Fe1 Ni1,BCC,S,AC,,6.6,456.0,C,25.0,964.0,,,,173.0,,,,,,,,,,27,Effects of Al and Si addition on the structure and properties of CoFeNi equal atomic ratio alloy,2014,10.1016/j.jmmm.2014.07.023,http://dx.doi.org/10.1016/j.jmmm.2014.07.023,10.1016/j.jmmm.2014.07.023,BCC,CAST,BCC,6.6,162
4,4,10.1016/j.jmmm.2014.07.023,Co1 Fe1 Ni1,FCC,S,AC,,8.5,125.0,C,25.0,204.0,,,,207.0,,,,,,,,,,27,Effects of Al and Si addition on the structure and properties of CoFeNi equal atomic ratio alloy,2014,10.1016/j.jmmm.2014.07.023,http://dx.doi.org/10.1016/j.jmmm.2014.07.023,10.1016/j.jmmm.2014.07.023,FCC,CAST,FCC,8.5,207
5,4,10.1016/j.jmmm.2014.07.023,Co1 Fe1 Ni1,FCC,S,AC,,8.5,125.0,C,25.0,209.0,,,,207.0,,,,,,,,,,27,Effects of Al and Si addition on the structure and properties of CoFeNi equal atomic ratio alloy,2014,10.1016/j.jmmm.2014.07.023,http://dx.doi.org/10.1016/j.jmmm.2014.07.023,10.1016/j.jmmm.2014.07.023,FCC,CAST,FCC,8.5,207
6,4,10.1016/j.jmmm.2014.07.023,Co1 Fe1 Ni1 Si0.25,FCC,S,AC,,7.7,149.0,C,25.0,196.0,,,,194.0,,,,,,,,,,27,Effects of Al and Si addition on the structure and properties of CoFeNi equal atomic ratio alloy,2014,10.1016/j.jmmm.2014.07.023,http://dx.doi.org/10.1016/j.jmmm.2014.07.023,10.1016/j.jmmm.2014.07.023,FCC,CAST,FCC,7.7,186
7,4,10.1016/j.jmmm.2014.07.023,Co1 Fe1 Ni1 Si0.5,FCC+Ni3Si,M,AC,,7.1,287.0,C,25.0,476.0,,,,,,,,,,,,,,27,Effects of Al and Si addition on the structure and properties of CoFeNi equal atomic ratio alloy,2014,10.1016/j.jmmm.2014.07.023,http://dx.doi.org/10.1016/j.jmmm.2014.07.023,10.1016/j.jmmm.2014.07.023,other,CAST,FCC+Sec.,7.1,
8,4,10.1016/j.jmmm.2014.07.023,Co1 Fe1 Ni1 Si0.75,FCC+Ni3Si,M,AC,,6.6,570.0,C,25.0,1301.0,,,,,,,,,,,,,,27,Effects of Al and Si addition on the structure and properties of CoFeNi equal atomic ratio alloy,2014,10.1016/j.jmmm.2014.07.023,http://dx.doi.org/10.1016/j.jmmm.2014.07.023,10.1016/j.jmmm.2014.07.023,other,CAST,FCC+Sec.,6.6,
9,5,10.1016/j.actamat.2014.08.026,Co1 Cr1 Fe1 Ni1,FCC,S,CR,24.0,8.2,,T,25.0,274.0,708.0,39.0,,225.0,,,,,elongation is total,,,,,37,Temperature dependence of the mechanical properties of equiatomic solid solution alloys with face-centered cubic crystal structures,2014,10.1016/j.actamat.2014.08.026,http://dx.doi.org/10.1016/j.actamat.2014.08.026,10.1016/j.actamat.2014.08.026,FCC,WROUGHT,FCC,8.2,226
10,5,10.1016/j.actamat.2014.08.026,Co1 Cr1 Mn1 Ni1,FCC,S,CR,36.0,8.1,,T,25.0,282.0,694.0,44.0,,222.0,,,,,elongation is total,,,,,37,Temperature dependence of the mechanical properties of equiatomic solid solution alloys with face-centered cubic crystal structures,2014,10.1016/j.actamat.2014.08.026,http://dx.doi.org/10.1016/j.actamat.2014.08.026,10.1016/j.actamat.2014.08.026,FCC,WROUGHT,FCC,8.1,222
11,5,10.1016/j.actamat.2014.08.026,Co1 Cr1 Ni1,FCC,S,CR,41.0,8.3,,T,25.0,300.0,860.0,60.0,,229.0,,,,,elongation is total,,,,,37,Temperature dependence of the mechanical properties of equiatomic solid solution alloys with face-centered cubic crystal structures,2014,10.1016/j.actamat.2014.08.026,http://dx.doi.org/10.1016/j.actamat.2014.08.026,10.1016/j.actamat.2014.08.026,FCC,WROUGHT,FCC,8.3,231
12,5,10.1016/j.actamat.2014.08.026,Co1 Fe1 Mn1 Ni1,FCC,S,CR,48.0,8.2,,T,25.0,170.0,550.0,41.0,,205.0,,,,,elongation is total,,,,,37,Temperature dependence of the mechanical properties of equiatomic solid solution alloys with face-centered cubic crystal structures,2014,10.1016/j.actamat.2014.08.026,http://dx.doi.org/10.1016/j.actamat.2014.08.026,10.1016/j.actamat.2014.08.026,FCC,WROUGHT,FCC,8.2,204
13,5,10.1016/j.actamat.2014.08.026,Co1 Fe1 Ni1,FCC,S,CR,28.0,8.5,,T,25.0,211.0,513.0,31.0,,207.0,,,,,elongation is total,,,,,37,Temperature dependence of the mechanical properties of equiatomic solid solution alloys with face-centered cubic crystal structures,2014,10.1016/j.actamat.2014.08.026,http://dx.doi.org/10.1016/j.actamat.2014.08.026,10.1016/j.actamat.2014.08.026,FCC,WROUGHT,FCC,8.5,207
14,5,10.1016/j.actamat.2014.08.026,Co1 Mn1 Ni1,FCC,S,CR,32.0,8.4,,T,25.0,231.0,653.0,38.0,,202.0,,,,,elongation is total,,,,,37,Temperature dependence of the mechanical properties of equiatomic solid solution alloys with face-centered cubic crystal structures,2014,10.1016/j.actamat.2014.08.026,http://dx.doi.org/10.1016/j.actamat.2014.08.026,10.1016/j.actamat.2014.08.026,FCC,WROUGHT,FCC,8.4,202
15,5,10.1016/j.actamat.2014.08.026,Fe1 Mn1 Ni1,FCC,S,CR,30.0,8.1,,T,25.0,221.0,602.0,36.0,,203.0,,,,,elongation is total,,,,,37,Temperature dependence of the mechanical properties of equiatomic solid solution alloys with face-centered cubic crystal structures,2014,10.1016/j.actamat.2014.08.026,http://dx.doi.org/10.1016/j.actamat.2014.08.026,10.1016/j.actamat.2014.08.026,FCC,WROUGHT,FCC,8.1,203
16,6,10.1016/j.intermet.2015.01.004,Co1 Cr1 Fe1 Nb0.103 Ni1,FCC+Laves (C14),M,AC,175.0,8.2,,T,25.0,318.0,622.0,19.0,,,,,,,all YS recorded as +1 MPa,,,,,46,Effects of Nb additions on the microstructure and mechanical property of CoCrFeNi high-entropy alloys,2015,10.1016/j.intermet.2015.01.004,http://dx.doi.org/10.1016/j.intermet.2015.01.004,10.1016/j.intermet.2015.01.004,other,CAST,FCC+Sec.,8.2,
17,6,10.1016/j.intermet.2015.01.004,Co1 Cr1 Fe1 Nb0.155 Ni1,FCC+Laves (C14),M,AC,175.0,8.2,,T,25.0,322.0,744.0,23.0,,,,,,,all YS recorded as +1 MPa,,,,,46,Effects of Nb additions on the microstructure and mechanical property of CoCrFeNi high-entropy alloys,2015,10.1016/j.intermet.2015.01.004,http://dx.doi.org/10.1016/j.intermet.2015.01.004,10.1016/j.intermet.2015.01.004,other,CAST,FCC+Sec.,8.2,
18,6,10.1016/j.intermet.2015.01.004,Co1 Cr1 Fe1 Nb0.206 Ni1,FCC+Laves (C14),M,AC,175.0,8.2,,T,25.0,403.0,807.0,9.0,,,,,,,all YS recorded as +1 MPa,,,,,46,Effects of Nb additions on the microstructure and mechanical property of CoCrFeNi high-entropy alloys,2015,10.1016/j.intermet.2015.01.004,http://dx.doi.org/10.1016/j.intermet.2015.01.004,10.1016/j.intermet.2015.01.004,other,CAST,FCC+Sec.,8.2,
19,6,10.1016/j.intermet.2015.01.004,Co1 Cr1 Fe1 Nb0.309 Ni1,FCC+Laves (C14),M,AC,175.0,8.2,,T,25.0,479.0,879.0,4.0,,,,,,,all YS recorded as +1 MPa,,,,,46,Effects of Nb additions on the microstructure and mechanical property of CoCrFeNi high-entropy alloys,2015,10.1016/j.intermet.2015.01.004,http://dx.doi.org/10.1016/j.intermet.2015.01.004,10.1016/j.intermet.2015.01.004,other,CAST,FCC+Sec.,8.2,
20,6,10.1016/j.intermet.2015.01.004,Co1 Cr1 Fe1 Nb0.412 Ni1,FCC+Laves (C14),M,AC,175.0,8.2,,T,25.0,638.0,1004.0,1.0,,,,,,,all YS recorded as +1 MPa,,,,,46,Effects of Nb additions on the microstructure and mechanical property of CoCrFeNi high-entropy alloys,2015,10.1016/j.intermet.2015.01.004,http://dx.doi.org/10.1016/j.intermet.2015.01.004,10.1016/j.intermet.2015.01.004,other,CAST,FCC+Sec.,8.2,
21,6,10.1016/j.intermet.2015.01.004,Co1 Cr1 Fe1 Ni1,FCC,S,AC,175.0,8.2,,T,25.0,148.0,413.0,48.0,,225.0,,,,,all YS recorded as +1 MPa,,,,,46,Effects of Nb additions on the microstructure and mechanical property of CoCrFeNi high-entropy alloys,2015,10.1016/j.intermet.2015.01.004,http://dx.doi.org/10.1016/j.intermet.2015.01.004,10.1016/j.intermet.2015.01.004,FCC,CAST,FCC,8.2,226
22,7,10.1016/j.jallcom.2009.08.090,Al0.25 Co1 Cr1 Fe1 Ni1,FCC,S,A,,7.7,110.0,,25.0,,,,,216.0,,,,,,,,,,54,"Microstructure and mechanical property of as-cast, -homogenized, and -deformed AlxCoCrFeNi (0≤x≤2) high-entropy alloys",2009,10.1016/j.jallcom.2009.08.090,http://dx.doi.org/10.1016/j.jallcom.2009.08.090,10.1016/j.jallcom.2009.08.090,FCC,ANNEAL,FCC,7.7,213
23,7,10.1016/j.jallcom.2009.08.090,Al0.25 Co1 Cr1 Fe1 Ni1,FCC,S,A,,7.7,113.0,,25.0,,,,,216.0,,,,,,,,,,54,"Microstructure and mechanical property of as-cast, -homogenized, and -deformed AlxCoCrFeNi (0≤x≤2) high-entropy alloys",2009,10.1016/j.jallcom.2009.08.090,http://dx.doi.org/10.1016/j.jallcom.2009.08.090,10.1016/j.jallcom.2009.08.090,FCC,ANNEAL,FCC,7.7,213
24,7,10.1016/j.jallcom.2009.08.090,Al0.375 Co1 Cr1 Fe1 Ni1,FCC,S,A,,7.5,131.0,,25.0,,,,,211.0,,,,,,,,,,54,"Microstructure and mechanical property of as-cast, -homogenized, and -deformed AlxCoCrFeNi (0≤x≤2) high-entropy alloys",2009,10.1016/j.jallcom.2009.08.090,http://dx.doi.org/10.1016/j.jallcom.2009.08.090,10.1016/j.jallcom.2009.08.090,FCC,ANNEAL,FCC,7.5,207
25,7,10.1016/j.jallcom.2009.08.090,Al0.375 Co1 Cr1 Fe1 Ni1,FCC,S,A,,7.5,196.0,,25.0,,,,,211.0,,,,,,,,,,54,"Microstructure and mechanical property of as-cast, -homogenized, and -deformed AlxCoCrFeNi (0≤x≤2) high-entropy alloys",2009,10.1016/j.jallcom.2009.08.090,http://dx.doi.org/10.1016/j.jallcom.2009.08.090,10.1016/j.jallcom.2009.08.090,FCC,ANNEAL,FCC,7.5,207
26,7,10.1016/j.jallcom.2009.08.090,Al0.5 Co1 Cr1 Fe1 Ni1,FCC+BCC,M,A,,7.3,159.0,,25.0,,,,,208.0,,,,,,,,,,54,"Microstructure and mechanical property of as-cast, -homogenized, and -deformed AlxCoCrFeNi (0≤x≤2) high-entropy alloys",2009,10.1016/j.jallcom.2009.08.090,http://dx.doi.org/10.1016/j.jallcom.2009.08.090,10.1016/j.jallcom.2009.08.090,other,ANNEAL,FCC+BCC,7.3,
27,7,10.1016/j.jallcom.2009.08.090,Al0.5 Co1 Cr1 Fe1 Ni1,FCC+BCC,M,A,,7.3,209.0,,25.0,,,,,208.0,,,,,,,,,,54,"Microstructure and mechanical property of as-cast, -homogenized, and -deformed AlxCoCrFeNi (0≤x≤2) high-entropy alloys",2009,10.1016/j.jallcom.2009.08.090,http://dx.doi.org/10.1016/j.jallcom.2009.08.090,10.1016/j.jallcom.2009.08.090,other,ANNEAL,FCC+BCC,7.3,
28,7,10.1016/j.jallcom.2009.08.090,Al0.75 Co1 Cr1 Fe1 Ni1,FCC+BCC,M,A,,7.0,388.0,,25.0,,,,,200.0,,,,,,,,,,54,"Microstructure and mechanical property of as-cast, -homogenized, and -deformed AlxCoCrFeNi (0≤x≤2) high-entropy alloys",2009,10.1016/j.jallcom.2009.08.090,http://dx.doi.org/10.1016/j.jallcom.2009.08.090,10.1016/j.jallcom.2009.08.090,other,ANNEAL,FCC+BCC,7.0,
29,7,10.1016/j.jallcom.2009.08.090,Al0.75 Co1 Cr1 Fe1 Ni1,FCC+BCC,M,A,,7.0,280.0,,25.0,,,,,200.0,,,,,,,,,,54,"Microstructure and mechanical property of as-cast, -homogenized, and -deformed AlxCoCrFeNi (0≤x≤2) high-entropy alloys",2009,10.1016/j.jallcom.2009.08.090,http://dx.doi.org/10.1016/j.jallcom.2009.08.090,10.1016/j.jallcom.2009.08.090,other,ANNEAL,FCC+BCC,7.0,
30,7,10.1016/j.jallcom.2009.08.090,Al0.875 Co1 Cr1 Fe1 Ni1,BCC,S,A,,6.9,538.0,,25.0,,,,,197.0,,,,,,,,,,54,"Microstructure and mechanical property of as-cast, -homogenized, and -deformed AlxCoCrFeNi (0≤x≤2) high-entropy alloys",2009,10.1016/j.jallcom.2009.08.090,http://dx.doi.org/10.1016/j.jallcom.2009.08.090,10.1016/j.jallcom.2009.08.090,BCC,ANNEAL,BCC,6.9,188
31,7,10.1016/j.jallcom.2009.08.090,Al0.875 Co1 Cr1 Fe1 Ni1,FCC+BCC,M,A,,6.9,361.0,,25.0,,,,,197.0,,,,,,,,,,54,"Microstructure and mechanical property of as-cast, -homogenized, and -deformed AlxCoCrFeNi (0≤x≤2) high-entropy alloys",2009,10.1016/j.jallcom.2009.08.090,http://dx.doi.org/10.1016/j.jallcom.2009.08.090,10.1016/j.jallcom.2009.08.090,other,ANNEAL,FCC+BCC,6.9,
32,7,10.1016/j.jallcom.2009.08.090,Al1 Co0.8 Cr0.8 Fe0.8 Ni0.8,BCC,S,A,,6.5,487.0,,25.0,,,,,188.0,,,,,,,,,,54,"Microstructure and mechanical property of as-cast, -homogenized, and -deformed AlxCoCrFeNi (0≤x≤2) high-entropy alloys",2009,10.1016/j.jallcom.2009.08.090,http://dx.doi.org/10.1016/j.jallcom.2009.08.090,10.1016/j.jallcom.2009.08.090,BCC,ANNEAL,BCC,6.5,177
33,7,10.1016/j.jallcom.2009.08.090,Al1 Co0.8 Cr0.8 Fe0.8 Ni0.8,BCC,S,A,,6.5,499.0,,25.0,,,,,188.0,,,,,,,,,,54,"Microstructure and mechanical property of as-cast, -homogenized, and -deformed AlxCoCrFeNi (0≤x≤2) high-entropy alloys",2009,10.1016/j.jallcom.2009.08.090,http://dx.doi.org/10.1016/j.jallcom.2009.08.090,10.1016/j.jallcom.2009.08.090,BCC,ANNEAL,BCC,6.5,177
34,7,10.1016/j.jallcom.2009.08.090,Al1 Co0.667 Cr0.667 Fe0.667 Ni0.667,BCC,S,A,,6.2,484.0,,25.0,,,,,183.0,,,,,,,,,,54,"Microstructure and mechanical property of as-cast, -homogenized, and -deformed AlxCoCrFeNi (0≤x≤2) high-entropy alloys",2009,10.1016/j.jallcom.2009.08.090,http://dx.doi.org/10.1016/j.jallcom.2009.08.090,10.1016/j.jallcom.2009.08.090,BCC,ANNEAL,BCC,6.2,171
35,7,10.1016/j.jallcom.2009.08.090,Al1 Co0.667 Cr0.667 Fe0.667 Ni0.667,BCC,S,A,,6.2,517.0,,25.0,,,,,183.0,,,,,,,,,,54,"Microstructure and mechanical property of as-cast, -homogenized, and -deformed AlxCoCrFeNi (0≤x≤2) high-entropy alloys",2009,10.1016/j.jallcom.2009.08.090,http://dx.doi.org/10.1016/j.jallcom.2009.08.090,10.1016/j.jallcom.2009.08.090,BCC,ANNEAL,BCC,6.2,171
36,7,10.1016/j.jallcom.2009.08.090,Al1 Co0.5 Cr0.5 Fe0.5 Ni0.5,BCC,S,A,,5.9,509.0,,25.0,,,,,173.0,,,,,,,,,,54,"Microstructure and mechanical property of as-cast, -homogenized, and -deformed AlxCoCrFeNi (0≤x≤2) high-entropy alloys",2009,10.1016/j.jallcom.2009.08.090,http://dx.doi.org/10.1016/j.jallcom.2009.08.090,10.1016/j.jallcom.2009.08.090,BCC,ANNEAL,BCC,5.9,160
37,7,10.1016/j.jallcom.2009.08.090,Al1 Co0.5 Cr0.5 Fe0.5 Ni0.5,BCC,S,A,,5.9,512.0,,25.0,,,,,173.0,,,,,,,,,,54,"Microstructure and mechanical property of as-cast, -homogenized, and -deformed AlxCoCrFeNi (0≤x≤2) high-entropy alloys",2009,10.1016/j.jallcom.2009.08.090,http://dx.doi.org/10.1016/j.jallcom.2009.08.090,10.1016/j.jallcom.2009.08.090,BCC,ANNEAL,BCC,5.9,160
38,7,10.1016/j.jallcom.2009.08.090,Al1 Co1 Cr1 Fe1 Ni1,BCC,S,A,,6.7,484.0,,25.0,,,,,194.0,,,,,,,,,,54,"Microstructure and mechanical property of as-cast, -homogenized, and -deformed AlxCoCrFeNi (0≤x≤2) high-entropy alloys",2009,10.1016/j.jallcom.2009.08.090,http://dx.doi.org/10.1016/j.jallcom.2009.08.090,10.1016/j.jallcom.2009.08.090,BCC,ANNEAL,BCC,6.7,184
39,7,10.1016/j.jallcom.2009.08.090,Al1 Co1 Cr1 Fe1 Ni1,FCC+BCC,M,A,,6.7,433.0,,25.0,,,,,194.0,,,,,,,,,,54,"Microstructure and mechanical property of as-cast, -homogenized, and -deformed AlxCoCrFeNi (0≤x≤2) high-entropy alloys",2009,10.1016/j.jallcom.2009.08.090,http://dx.doi.org/10.1016/j.jallcom.2009.08.090,10.1016/j.jallcom.2009.08.090,other,ANNEAL,FCC+BCC,6.7,
40,7,10.1016/j.jallcom.2009.08.090,Co1 Cr1 Fe1 Ni1,FCC,S,A,,8.2,116.0,,25.0,,,,,225.0,,,,,,,,,,54,"Microstructure and mechanical property of as-cast, -homogenized, and -deformed AlxCoCrFeNi (0≤x≤2) high-entropy alloys",2009,10.1016/j.jallcom.2009.08.090,http://dx.doi.org/10.1016/j.jallcom.2009.08.090,10.1016/j.jallcom.2009.08.090,FCC,ANNEAL,FCC,8.2,226
41,7,10.1016/j.jallcom.2009.08.090,Co1 Cr1 Fe1 Ni1,FCC,S,A,,8.2,113.0,,25.0,,,,,225.0,,,,,,,,,,54,"Microstructure and mechanical property of as-cast, -homogenized, and -deformed AlxCoCrFeNi (0≤x≤2) high-entropy alloys",2009,10.1016/j.jallcom.2009.08.090,http://dx.doi.org/10.1016/j.jallcom.2009.08.090,10.1016/j.jallcom.2009.08.090,FCC,ANNEAL,FCC,8.2,226
42,8,10.1007/s11837-013-0753-6,Al0.5 Co1 Cr1 Fe1 Mo0.5 Ni1,FCC+Sigma,M,AC,,7.7,425.0,,25.0,,,,,,,,,,,,,,,63,Effect of Aluminum Content on Microstructure and Mechanical Properties of Al x CoCrFeMo0.5Ni High-Entropy Alloys,2013,10.1007/s11837-013-0753-6,http://dx.doi.org/10.1007/s11837-013-0753-6,10.1007/s11837-013-0753-6,other,CAST,FCC+Sec.,7.7,
43,8,10.1007/s11837-013-0753-6,Al1 Co0.667 Cr0.667 Fe0.667 Mo0.333 Ni0.667,B2+Sigma,M,AC,,6.6,655.0,,25.0,,,,,,,,,,,,,,,63,Effect of Aluminum Content on Microstructure and Mechanical Properties of Al x CoCrFeMo0.5Ni High-Entropy Alloys,2013,10.1007/s11837-013-0753-6,http://dx.doi.org/10.1007/s11837-013-0753-6,10.1007/s11837-013-0753-6,other,CAST,B2+Sec.,6.6,
44,8,10.1007/s11837-013-0753-6,Al1 Co0.5 Cr0.5 Fe0.5 Mo0.25 Ni0.5,BCC + B2,S,AC,,6.3,605.0,,25.0,,,,,185.0,,,,,,,,,,63,Effect of Aluminum Content on Microstructure and Mechanical Properties of Al x CoCrFeMo0.5Ni High-Entropy Alloys,2013,10.1007/s11837-013-0753-6,http://dx.doi.org/10.1007/s11837-013-0753-6,10.1007/s11837-013-0753-6,other,CAST,BCC+B2,6.3,
45,8,10.1007/s11837-013-0753-6,Al1 Co1 Cr1 Fe1 Mo0.5 Ni1,B2+Sigma,M,AC,,7.1,715.0,,25.0,,,,,,,,,,,,,,,63,Effect of Aluminum Content on Microstructure and Mechanical Properties of Al x CoCrFeMo0.5Ni High-Entropy Alloys,2013,10.1007/s11837-013-0753-6,http://dx.doi.org/10.1007/s11837-013-0753-6,10.1007/s11837-013-0753-6,other,CAST,B2+Sec.,7.1,
46,8,10.1007/s11837-013-0753-6,Co1 Cr1 Fe1 Mo0.5 Ni1,FCC+Sigma,M,AC,,8.5,210.0,,25.0,,,,,,,,,,,,,,,63,Effect of Aluminum Content on Microstructure and Mechanical Properties of Al x CoCrFeMo0.5Ni High-Entropy Alloys,2013,10.1007/s11837-013-0753-6,http://dx.doi.org/10.1007/s11837-013-0753-6,10.1007/s11837-013-0753-6,other,CAST,FCC+Sec.,8.5,
47,9,10.1016/j.msea.2008.12.053,Al0.5 Co1 Cr1 Fe1 Ni1 Ti1,BCC+Laves,M,AC,,6.6,,C,25.0,,1600.0,,10.0,,107.0,,,,elongation is plastic ,,,,,66,Microstructure and mechanical properties of CoCrFeNiTiAlx high-entropy alloys,2009,10.1016/j.msea.2008.12.053,http://dx.doi.org/10.1016/j.msea.2008.12.053,10.1016/j.msea.2008.12.053,other,CAST,BCC+Laves,6.6,
48,9,10.1016/j.msea.2008.12.053,Al1 Co0.667 Cr0.667 Fe0.667 Ni0.667 Ti0.667,BCC + BCC,S,AC,,5.9,,C,25.0,,2110.0,,10.0,,133.0,,,,elongation is plastic ,,,,,66,Microstructure and mechanical properties of CoCrFeNiTiAlx high-entropy alloys,2009,10.1016/j.msea.2008.12.053,http://dx.doi.org/10.1016/j.msea.2008.12.053,10.1016/j.msea.2008.12.053,other,CAST,BCC+BCC,5.9,
49,9,10.1016/j.msea.2008.12.053,Al1 Co0.5 Cr0.5 Fe0.5 Ni0.5 Ti0.5,BCC + BCC,S,AC,,5.6,643.0,C,25.0,,1030.0,,5.0,,94.0,,,,elongation is plastic ,,,,,66,Microstructure and mechanical properties of CoCrFeNiTiAlx high-entropy alloys,2009,10.1016/j.msea.2008.12.053,http://dx.doi.org/10.1016/j.msea.2008.12.053,10.1016/j.msea.2008.12.053,other,CAST,BCC+BCC,5.6,
50,9,10.1016/j.msea.2008.12.053,Al1 Co1 Cr1 Fe1 Ni1 Ti1,BCC+Laves,M,AC,0.15,6.2,,C,25.0,,2280.0,,6.0,,148.0,,,,elongation is plastic ,,,,,66,Microstructure and mechanical properties of CoCrFeNiTiAlx high-entropy alloys,2009,10.1016/j.msea.2008.12.053,http://dx.doi.org/10.1016/j.msea.2008.12.053,10.1016/j.msea.2008.12.053,other,CAST,BCC+Laves,6.2,
51,9,10.1016/j.msea.2008.12.053,Co1 Cr1 Fe1 Ni1 Ti1,FCC,S,AC,,7.2,,C,25.0,,2020.0,,9.0,,135.0,,,,elongation is plastic ,,,,,66,Microstructure and mechanical properties of CoCrFeNiTiAlx high-entropy alloys,2009,10.1016/j.msea.2008.12.053,http://dx.doi.org/10.1016/j.msea.2008.12.053,10.1016/j.msea.2008.12.053,FCC,CAST,FCC,7.2,195
52,10,10.1016/j.actamat.2011.06.041,Al0.133 Co1 Cr0.667 Fe0.667 Ni1 Ti0.667,FCC+Ni3Ti,M,A,,7.2,717.0,,25.0,,,,,,,,,,,,,,,1,Microstructure and wear behavior of AlxCo1.5CrFeNi1.5Tiy high-entropy alloys,2011,10.1016/j.actamat.2011.06.041,http://dx.doi.org/10.1016/j.actamat.2011.06.041,10.1016/j.actamat.2011.06.041,other,ANNEAL,FCC+Sec.,7.2,
53,10,10.1016/j.actamat.2011.06.041,Al0.133 Co1 Cr0.667 Fe0.667 Ni1 Ti0.333,FCC,S,A,,7.6,487.0,,25.0,,,,,206.0,,,,,,,,,,1,Microstructure and wear behavior of AlxCo1.5CrFeNi1.5Tiy high-entropy alloys,2011,10.1016/j.actamat.2011.06.041,http://dx.doi.org/10.1016/j.actamat.2011.06.041,10.1016/j.actamat.2011.06.041,FCC,ANNEAL,FCC,7.6,201
54,10,10.1016/j.actamat.2011.06.041,Co1 Cr0.667 Fe0.667 Ni1 Ti0.667,FCC+Ni3Ti,M,A,,7.4,654.0,,25.0,,,,,,,,,,,,,,,1,Microstructure and wear behavior of AlxCo1.5CrFeNi1.5Tiy high-entropy alloys,2011,10.1016/j.actamat.2011.06.041,http://dx.doi.org/10.1016/j.actamat.2011.06.041,10.1016/j.actamat.2011.06.041,other,ANNEAL,FCC+Sec.,7.4,
55,10,10.1016/j.actamat.2011.06.041,Co1 Cr0.667 Fe0.667 Ni1 Ti0.333,FCC ,S,A,,7.8,509.0,,25.0,,,,,211.0,,,,,,,,,,1,Microstructure and wear behavior of AlxCo1.5CrFeNi1.5Tiy high-entropy alloys,2011,10.1016/j.actamat.2011.06.041,http://dx.doi.org/10.1016/j.actamat.2011.06.041,10.1016/j.actamat.2011.06.041,other,ANNEAL,FCC,7.8,
56,11,10.1016/j.matdes.2013.04.061,Al0.7 Co0.3 Cr1 Fe1 Ni1,FCC+BCC+B2,M,SPS,,6.8,624.0,C,25.0,2033.0,2635.0,8.0,,,,,,,labeled as plastic but is total,,,,,2,"Alloying behavior, microstructure and mechanical properties in a FeNiCrCo0.3Al0.7 high entropy alloy",2013,10.1016/j.matdes.2013.04.061,http://dx.doi.org/10.1016/j.matdes.2013.04.061,10.1016/j.matdes.2013.04.061,other,POWDER,FCC+BCC+B2,6.8,
57,12,10.1016/C2013-0-14235-3,Al0.875 Co1 Cr1 Fe1 Ni1,FCC+BCC,M,,,6.9,,,25.0,,,,,197.0,,,,,,,,,,3,High Entropy Alloys,2014,10.1016/C2013-0-14235-3,http://dx.doi.org/10.1016/c2013-0-14235-3,10.1016/C2013-0-14235-3,other,,FCC+BCC,6.9,
58,13,10.1016/j.jallcom.2008.07.124,Al1 Co0.667 Cr0.667 Fe0.667 Ni0.667,BCC,S,AC,,6.2,402.0,,25.0,,,,,183.0,,,,,,,,,,4,Effect of alloying elements on microstructure and properties of multiprincipal elements high-entropy alloys,2009,10.1016/j.jallcom.2008.07.124,http://dx.doi.org/10.1016/j.jallcom.2008.07.124,10.1016/j.jallcom.2008.07.124,BCC,CAST,BCC,6.2,171
59,13,10.1016/j.jallcom.2008.07.124,Al1 Co0.4 Cr0.4 Fe0.4 Ni0.4,BCC,S,AC,,5.6,487.0,,25.0,,,,,165.0,,,,,,,,,,4,Effect of alloying elements on microstructure and properties of multiprincipal elements high-entropy alloys,2009,10.1016/j.jallcom.2008.07.124,http://dx.doi.org/10.1016/j.jallcom.2008.07.124,10.1016/j.jallcom.2008.07.124,BCC,CAST,BCC,5.6,152
60,13,10.1016/j.jallcom.2008.07.124,Al1 Co0.5 Cr0.5 Fe0.5 Ni0.5,BCC,S,AC,,5.9,432.0,,25.0,,,,,173.0,,,,,,,,,,4,Effect of alloying elements on microstructure and properties of multiprincipal elements high-entropy alloys,2009,10.1016/j.jallcom.2008.07.124,http://dx.doi.org/10.1016/j.jallcom.2008.07.124,10.1016/j.jallcom.2008.07.124,BCC,CAST,BCC,5.9,160
61,13,10.1016/j.jallcom.2008.07.124,Al1 Co0.333 Cr0.333 Fe0.333 Ni0.333,BCC,S,AC,,5.3,506.0,,25.0,,,,,158.0,,,,,,,,,,4,Effect of alloying elements on microstructure and properties of multiprincipal elements high-entropy alloys,2009,10.1016/j.jallcom.2008.07.124,http://dx.doi.org/10.1016/j.jallcom.2008.07.124,10.1016/j.jallcom.2008.07.124,BCC,CAST,BCC,5.3,145
62,13,10.1016/j.jallcom.2008.07.124,Al1 Co1 Cr1 Fe1 Ni1,BCC,S,AC,,6.7,395.0,,25.0,,,,,194.0,,,,,,,,,,4,Effect of alloying elements on microstructure and properties of multiprincipal elements high-entropy alloys,2009,10.1016/j.jallcom.2008.07.124,http://dx.doi.org/10.1016/j.jallcom.2008.07.124,10.1016/j.jallcom.2008.07.124,BCC,CAST,BCC,6.7,184
63,13,10.1016/j.jallcom.2008.07.124,Al1 Cr1 Cu1 Fe1 Ni1,FCC+BCC,M,AC,,6.8,342.0,,25.0,,,,,178.0,,,,,,,,,,4,Effect of alloying elements on microstructure and properties of multiprincipal elements high-entropy alloys,2009,10.1016/j.jallcom.2008.07.124,http://dx.doi.org/10.1016/j.jallcom.2008.07.124,10.1016/j.jallcom.2008.07.124,other,CAST,FCC+BCC,6.8,
64,13,10.1016/j.jallcom.2008.07.124,Co1 Cr1 Cu1 Fe1 Ni1,FCC,S,AC,,8.3,286.0,,25.0,,,,,206.0,,,,,,,,,,4,Effect of alloying elements on microstructure and properties of multiprincipal elements high-entropy alloys,2009,10.1016/j.jallcom.2008.07.124,http://dx.doi.org/10.1016/j.jallcom.2008.07.124,10.1016/j.jallcom.2008.07.124,FCC,CAST,FCC,8.3,206
65,13,10.1016/j.jallcom.2008.07.124,Cr1 Cu1 Fe1 Mn1 Ni1,FCC+BCC,M,AC,,8.1,296.0,,25.0,,,,,204.0,,,,,,,,,,4,Effect of alloying elements on microstructure and properties of multiprincipal elements high-entropy alloys,2009,10.1016/j.jallcom.2008.07.124,http://dx.doi.org/10.1016/j.jallcom.2008.07.124,10.1016/j.jallcom.2008.07.124,other,CAST,FCC+BCC,8.1,
66,13,10.1016/j.jallcom.2008.07.124,Cr1 Cu1 Fe1 Mo1 Ni1,FCC,S,AC,,8.7,263.0,,25.0,,,,,230.0,,,,,,,,,,4,Effect of alloying elements on microstructure and properties of multiprincipal elements high-entropy alloys,2009,10.1016/j.jallcom.2008.07.124,http://dx.doi.org/10.1016/j.jallcom.2008.07.124,10.1016/j.jallcom.2008.07.124,FCC,CAST,FCC,8.7,236
67,14,10.1016/j.msea.2008.01.064,Al1 Co1 Cr1 Fe1 Ni1,BCC,S,AC,,6.7,,C,25.0,1251.0,2004.0,,33.0,194.0,,,,,plastic strain ,,,,,5,Microstructure and compressive properties of AlCrFeCoNi high entropy alloy,2008,10.1016/j.msea.2008.01.064,http://dx.doi.org/10.1016/j.msea.2008.01.064,10.1016/j.msea.2008.01.064,BCC,CAST,BCC,6.7,184
68,18,10.1016/j.jallcom.2010.10.047,Al1 C0.1 Co1 Cr1 Fe1 Ni1,BCC+eta,M,AC,,6.7,,C,25.0,957.0,2550.0,,11.0,,213.0,,,,plastic strain ,,,,,6,Microstructure and compressive properties of multiprincipal component AlCoCrFeNiCx alloys,2011,10.1016/j.jallcom.2010.10.047,http://dx.doi.org/10.1016/j.jallcom.2010.10.047,10.1016/j.jallcom.2010.10.047,other,CAST,BCC+Sec.,6.7,
69,18,10.1016/j.jallcom.2010.10.047,Al1 C0.2 Co1 Cr1 Fe1 Ni1,BCC+eta,M,AC,,6.8,,C,25.0,906.0,2386.0,,9.0,,151.0,,,,,,,,,6,Microstructure and compressive properties of multiprincipal component AlCoCrFeNiCx alloys,2011,10.1016/j.jallcom.2010.10.047,http://dx.doi.org/10.1016/j.jallcom.2010.10.047,10.1016/j.jallcom.2010.10.047,other,CAST,BCC+Sec.,6.6,
70,18,10.1016/j.jallcom.2010.10.047,Al1 C0.3 Co1 Cr1 Fe1 Ni1,BCC+eta,M,AC,,6.8,,C,25.0,867.0,2178.0,,8.0,,137.0,,,,,,,,,6,Microstructure and compressive properties of multiprincipal component AlCoCrFeNiCx alloys,2011,10.1016/j.jallcom.2010.10.047,http://dx.doi.org/10.1016/j.jallcom.2010.10.047,10.1016/j.jallcom.2010.10.047,other,CAST,BCC+Sec.,6.5,
71,18,10.1016/j.jallcom.2010.10.047,Al1 C0.4 Co1 Cr1 Fe1 Ni1,BCC+eta,M,AC,,6.8,,C,25.0,1056.0,2375.0,,7.0,,156.0,,,,,,,,,6,Microstructure and compressive properties of multiprincipal component AlCoCrFeNiCx alloys,2011,10.1016/j.jallcom.2010.10.047,http://dx.doi.org/10.1016/j.jallcom.2010.10.047,10.1016/j.jallcom.2010.10.047,other,CAST,BCC+Sec.,6.5,
72,18,10.1016/j.jallcom.2010.10.047,Al1 C0.5 Co1 Cr1 Fe1 Ni1,BCC+eta,M,AC,,6.8,,C,25.0,1060.0,2250.0,,6.0,,181.0,,,,,,,,,6,Microstructure and compressive properties of multiprincipal component AlCoCrFeNiCx alloys,2011,10.1016/j.jallcom.2010.10.047,http://dx.doi.org/10.1016/j.jallcom.2010.10.047,10.1016/j.jallcom.2010.10.047,other,CAST,BCC+Sec.,6.4,
73,18,10.1016/j.jallcom.2010.10.047,Al0.667 C1 Co0.667 Cr0.667 Fe0.667 Ni0.667,BCC+ eta + graphite,M,AC,,7.0,,C,25.0,1255.0,2083.0,,6.0,,73.0,,,,,,,,,6,Microstructure and compressive properties of multiprincipal component AlCoCrFeNiCx alloys,2011,10.1016/j.jallcom.2010.10.047,http://dx.doi.org/10.1016/j.jallcom.2010.10.047,10.1016/j.jallcom.2010.10.047,other,CAST,BCC+Sec.,5.9,
74,18,10.1016/j.jallcom.2010.10.047,Al1 C1 Co1 Cr1 Fe1 Ni1,BCC+ eta + graphite,M,AC,,6.9,,C,25.0,1251.0,2166.0,,7.0,,75.0,,,,,,,,,6,Microstructure and compressive properties of multiprincipal component AlCoCrFeNiCx alloys,2011,10.1016/j.jallcom.2010.10.047,http://dx.doi.org/10.1016/j.jallcom.2010.10.047,10.1016/j.jallcom.2010.10.047,other,CAST,BCC+Sec.,6.2,
75,18,10.1016/j.jallcom.2010.10.047,Al1 Co1 Cr1 Fe1 Ni1,BCC,S,AC,,6.7,,C,25.0,1138.0,,,11.0,125.0,,,,,,,,,,6,Microstructure and compressive properties of multiprincipal component AlCoCrFeNiCx alloys,2011,10.1016/j.jallcom.2010.10.047,http://dx.doi.org/10.1016/j.jallcom.2010.10.047,10.1016/j.jallcom.2010.10.047,BCC,CAST,BCC,6.7,184
76,19,10.1016/j.msea.2010.07.028,Al1 Co1 Cr1 Fe1 Mo0.1 Ni1,BCC,S,AC,,6.8,,C,25.0,1804.0,2280.0,,9.0,196.0,,,,,plastic strain; equivalent usually to total,,,,,7,Microstructures and compressive properties of multicomponent AlCoCrFeNiMox alloys,2010,10.1016/j.msea.2010.07.028,http://dx.doi.org/10.1016/j.msea.2010.07.028,10.1016/j.msea.2010.07.028,BCC,CAST,BCC,6.8,188
77,19,10.1016/j.msea.2010.07.028,Al1 Co1 Cr1 Fe1 Mo0.2 Ni1,BCC+Im,M,AC,,6.9,,C,25.0,2456.0,2953.0,,3.0,,,,,,,,,,,7,Microstructures and compressive properties of multicomponent AlCoCrFeNiMox alloys,2010,10.1016/j.msea.2010.07.028,http://dx.doi.org/10.1016/j.msea.2010.07.028,10.1016/j.msea.2010.07.028,other,CAST,BCC+Sec.,6.9,
78,19,10.1016/j.msea.2010.07.028,Al1 Co1 Cr1 Fe1 Mo0.3 Ni1,BCC+Im,M,AC,,7.0,,C,25.0,2649.0,3208.0,,3.0,,,,,,,,,,,7,Microstructures and compressive properties of multicomponent AlCoCrFeNiMox alloys,2010,10.1016/j.msea.2010.07.028,http://dx.doi.org/10.1016/j.msea.2010.07.028,10.1016/j.msea.2010.07.028,other,CAST,BCC+Sec.,7.0,
79,19,10.1016/j.msea.2010.07.028,Al1 Co1 Cr1 Fe1 Mo0.4 Ni1,BCC+Im,M,AC,,7.0,,C,25.0,2670.0,3161.0,,3.0,,,,,,,,,,,7,Microstructures and compressive properties of multicomponent AlCoCrFeNiMox alloys,2010,10.1016/j.msea.2010.07.028,http://dx.doi.org/10.1016/j.msea.2010.07.028,10.1016/j.msea.2010.07.028,other,CAST,BCC+Sec.,7.0,
80,19,10.1016/j.msea.2010.07.028,Al1 Co1 Cr1 Fe1 Mo0.5 Ni1,BCC+Im,M,AC,,7.1,,C,25.0,2757.0,3036.0,,3.0,,,,,,,,,,,7,Microstructures and compressive properties of multicomponent AlCoCrFeNiMox alloys,2010,10.1016/j.msea.2010.07.028,http://dx.doi.org/10.1016/j.msea.2010.07.028,10.1016/j.msea.2010.07.028,other,CAST,BCC+Sec.,7.1,
81,19,10.1016/j.msea.2010.07.028,Al1 Co1 Cr1 Fe1 Ni1,BCC,S,AC,,6.7,,C,25.0,1051.0,,,,194.0,,,,,,,,,,7,Microstructures and compressive properties of multicomponent AlCoCrFeNiMox alloys,2010,10.1016/j.msea.2010.07.028,http://dx.doi.org/10.1016/j.msea.2010.07.028,10.1016/j.msea.2010.07.028,BCC,CAST,BCC,6.7,184
82,20,10.1016/j.msea.2011.10.110,Al1 Co1 Cr1 Fe1 Nb0.1 Ni1,BCC,S,AC,,6.8,569.0,C,25.0,1641.0,3285.0,,17.0,192.0,,,,,plastic strain ,,,,,8,Effect of Nb addition on the microstructure and properties of AlCoCrFeNi high-entropy alloy,2012,10.1016/j.msea.2011.10.110,http://dx.doi.org/10.1016/j.msea.2011.10.110,10.1016/j.msea.2011.10.110,BCC,CAST,BCC,6.8,182
83,20,10.1016/j.msea.2011.10.110,Al1 Co1 Cr1 Fe1 Nb0.25 Ni1,BCC+Laves (C14),M,AC,,6.8,668.0,C,25.0,1959.0,3008.0,,11.0,,,,,,,,,,,8,Effect of Nb addition on the microstructure and properties of AlCoCrFeNi high-entropy alloy,2012,10.1016/j.msea.2011.10.110,http://dx.doi.org/10.1016/j.msea.2011.10.110,10.1016/j.msea.2011.10.110,other,CAST,BCC+Sec.,6.8,
84,20,10.1016/j.msea.2011.10.110,Al1 Co1 Cr1 Fe1 Nb0.5 Ni1,BCC+Laves (C14),M,AC,,7.0,747.0,C,25.0,2473.0,3170.0,,4.0,,,,,,,,,,,8,Effect of Nb addition on the microstructure and properties of AlCoCrFeNi high-entropy alloy,2012,10.1016/j.msea.2011.10.110,http://dx.doi.org/10.1016/j.msea.2011.10.110,10.1016/j.msea.2011.10.110,other,CAST,BCC+Sec.,7.0,
85,20,10.1016/j.msea.2011.10.110,Al1 Co1 Cr1 Fe1 Nb0.75 Ni1,BCC+Laves (C14),M,AC,,7.0,,,25.0,,,,,,,,,,,,,,,8,Effect of Nb addition on the microstructure and properties of AlCoCrFeNi high-entropy alloy,2012,10.1016/j.msea.2011.10.110,http://dx.doi.org/10.1016/j.msea.2011.10.110,10.1016/j.msea.2011.10.110,other,CAST,BCC+Sec.,7.0,
86,20,10.1016/j.msea.2011.10.110,Al1 Co1 Cr1 Fe1 Ni1,BCC,S,AC,,6.7,520.0,C,25.0,1373.0,3531.0,,25.0,194.0,,,,,,,,,,8,Effect of Nb addition on the microstructure and properties of AlCoCrFeNi high-entropy alloy,2012,10.1016/j.msea.2011.10.110,http://dx.doi.org/10.1016/j.msea.2011.10.110,10.1016/j.msea.2011.10.110,BCC,CAST,BCC,6.7,184
87,21,10.1002/adem.200900171,Al0.8 Co1 Cr1 Cu1 Fe1 Ni1,FCC+BCC,M,AC,,7.3,270.0,,25.0,,,,,187.0,,,,,,,,,,9,Microstructure and Mechanical Properties of New AlCoxCrFeMo0.5Ni High-Entropy Alloys,2010,10.1002/adem.200900171,http://dx.doi.org/10.1002/adem.200900171,10.1002/adem.200900171,other,CAST,FCC+BCC,7.3,
88,21,10.1002/adem.200900171,Al1 Co0.5 Cr1 Fe1 Mo0.5 Ni1,BCC+sigma,M,AC,,7.0,801.0,,25.0,,,,,,,,,,,,,,,9,Microstructure and Mechanical Properties of New AlCoxCrFeMo0.5Ni High-Entropy Alloys,2010,10.1002/adem.200900171,http://dx.doi.org/10.1002/adem.200900171,10.1002/adem.200900171,other,CAST,BCC+Sec.,7.0,
89,21,10.1002/adem.200900171,Al0.667 Co1 Cr0.667 Fe0.667 Mo0.333 Ni0.667,BCC+sigma,M,AC,,7.2,741.0,,25.0,,,,,,,,,,,,,,,9,Microstructure and Mechanical Properties of New AlCoxCrFeMo0.5Ni High-Entropy Alloys,2010,10.1002/adem.200900171,http://dx.doi.org/10.1002/adem.200900171,10.1002/adem.200900171,other,CAST,BCC+Sec.,7.2,
90,21,10.1002/adem.200900171,Al0.5 Co1 Cr0.5 Fe0.5 Mo0.25 Ni0.5,FCC+BCC+sigma,M,AC,200.0,7.3,586.0,,25.0,,,,,,,,,,,,,,,9,Microstructure and Mechanical Properties of New AlCoxCrFeMo0.5Ni High-Entropy Alloys,2010,10.1002/adem.200900171,http://dx.doi.org/10.1002/adem.200900171,10.1002/adem.200900171,other,CAST,FCC+BCC+Sec.,7.3,
91,21,10.1002/adem.200900171,Al1 Co1 Cr1 Fe1 Mo0.5 Ni1,BCC+sigma,M,AC,,7.1,796.0,,25.0,,,,,,,,,,,,,,,9,Microstructure and Mechanical Properties of New AlCoxCrFeMo0.5Ni High-Entropy Alloys,2010,10.1002/adem.200900171,http://dx.doi.org/10.1002/adem.200900171,10.1002/adem.200900171,other,CAST,BCC+Sec.,7.1,
92,22,10.1016/j.wear.2009.10.013,Al1 Co1 Cr1 Fe1 Mo0.5 Ni1,BCC+sigma,M,AC,,7.0,755.0,,25.0,,,,,,,,,,edited the composition from 0.5 to 1,,,,,10,Effect of iron content on wear behavior of AlCoCrFexMo0.5Ni high-entropy alloys,2010,10.1016/j.wear.2009.10.013,http://dx.doi.org/10.1016/j.wear.2009.10.013,10.1016/j.wear.2009.10.013,other,CAST,BCC+Sec.,7.1,
93,22,10.1016/j.wear.2009.10.013,Al1 Co1 Cr1 Fe0.6 Mo0.5 Ni1,BCC+sigma,M,AC,,7.1,754.0,,25.0,,,,,,,,,,,,,,,10,Effect of iron content on wear behavior of AlCoCrFexMo0.5Ni high-entropy alloys,2010,10.1016/j.wear.2009.10.013,http://dx.doi.org/10.1016/j.wear.2009.10.013,10.1016/j.wear.2009.10.013,other,CAST,BCC+Sec.,7.1,
94,22,10.1016/j.wear.2009.10.013,Al0.667 Co0.667 Cr0.667 Fe1 Mo0.333 Ni0.667,BCC+sigma,M,AC,,7.2,635.0,,25.0,,,,,,,,,,,,,,,10,Effect of iron content on wear behavior of AlCoCrFexMo0.5Ni high-entropy alloys,2010,10.1016/j.wear.2009.10.013,http://dx.doi.org/10.1016/j.wear.2009.10.013,10.1016/j.wear.2009.10.013,other,CAST,BCC+Sec.,7.2,
95,22,10.1016/j.wear.2009.10.013,Al0.5 Co0.5 Cr0.5 Fe1 Mo0.25 Ni0.5,BCC+sigma,M,AC,,7.2,639.0,,25.0,,,,,,,,,,,,,,,10,Effect of iron content on wear behavior of AlCoCrFexMo0.5Ni high-entropy alloys,2010,10.1016/j.wear.2009.10.013,http://dx.doi.org/10.1016/j.wear.2009.10.013,10.1016/j.wear.2009.10.013,other,CAST,BCC+Sec.,7.2,
96,23,10.1016/j.intermet.2012.09.008,Al1 Co1 Cr1 Fe1 Mo0.5,B2 + omega,M,AC,,6.8,857.0,,25.0,,,,,,,,,,changed from BCC to B2,,,,,11,On microstructure and mechanical performance of AlCoCrFeMo0.5Nix high-entropy alloys,2013,10.1016/j.intermet.2012.09.008,http://dx.doi.org/10.1016/j.intermet.2012.09.008,10.1016/j.intermet.2012.09.008,other,CAST,B2+Sec.,6.8,
97,23,10.1016/j.intermet.2012.09.008,Al1 Co1 Cr1 Fe1 Mo0.5 Ni1,B2 + omega,M,AC,,7.1,730.0,,25.0,,,,,,,,,,changed from BCC to B2,,,,,11,On microstructure and mechanical performance of AlCoCrFeMo0.5Nix high-entropy alloys,2013,10.1016/j.intermet.2012.09.008,http://dx.doi.org/10.1016/j.intermet.2012.09.008,10.1016/j.intermet.2012.09.008,other,CAST,B2+Sec.,7.1,
98,23,10.1016/j.intermet.2012.09.008,Al1 Co1 Cr1 Fe1 Mo0.5 Ni0.5,B2 + omega,M,AC,,7.0,708.0,,25.0,,,,,,,,,,changed from BCC to B2,,,,,11,On microstructure and mechanical performance of AlCoCrFeMo0.5Nix high-entropy alloys,2013,10.1016/j.intermet.2012.09.008,http://dx.doi.org/10.1016/j.intermet.2012.09.008,10.1016/j.intermet.2012.09.008,other,CAST,B2+Sec.,7.0,
99,23,10.1016/j.intermet.2012.09.008,Al0.667 Co0.667 Cr0.667 Fe0.667 Mo0.333 Ni1,FCC+B2 + omega,M,AC,,7.2,586.0,,25.0,,,,,,,,,,changed from BCC to B2,,,,,11,On microstructure and mechanical performance of AlCoCrFeMo0.5Nix high-entropy alloys,2013,10.1016/j.intermet.2012.09.008,http://dx.doi.org/10.1016/j.intermet.2012.09.008,10.1016/j.intermet.2012.09.008,other,CAST,FCC+B2+Sec.,7.2,
100,23,10.1016/j.intermet.2012.09.008,Al0.5 Co0.5 Cr0.5 Fe0.5 Mo0.25 Ni1,FCC+B2 + omega,M,AC,,7.4,395.0,,25.0,,,,,,,,,,changed from BCC to B2,,,,,11,On microstructure and mechanical performance of AlCoCrFeMo0.5Nix high-entropy alloys,2013,10.1016/j.intermet.2012.09.008,http://dx.doi.org/10.1016/j.intermet.2012.09.008,10.1016/j.intermet.2012.09.008,other,CAST,FCC+B2+Sec.,7.3,
101,24,10.1016/j.msea.2010.07.049,Al1 Co1 Cr1 Fe1 Ni1,BCC,S,AC,,5.7,,C,25.0,1110.0,,,,169.0,,,,,,,,,,12,Synthesis and properties of multiprincipal component AlCoCrFeNiSix alloys,2010,10.1016/j.msea.2010.07.049,http://dx.doi.org/10.1016/j.msea.2010.07.049,10.1016/j.msea.2010.07.049,BCC,CAST,BCC,6.7,184
102,24,10.1016/j.msea.2010.07.049,Al1 Co1 Cr1 Fe1 Ni1 Si1,BCC+Im,M,AC,,5.7,,C,25.0,2411.0,2950.0,,1.0,,,,,,"plastic strain, stress strain curves not provided",,,,,12,Synthesis and properties of multiprincipal component AlCoCrFeNiSix alloys,2010,10.1016/j.msea.2010.07.049,http://dx.doi.org/10.1016/j.msea.2010.07.049,10.1016/j.msea.2010.07.049,other,CAST,BCC+Sec.,5.7,
103,24,10.1016/j.msea.2010.07.049,Al1 Co1 Cr1 Fe1 Ni1 Si0.2,BCC,S,AC,,6.5,,C,25.0,1265.0,2173.0,,14.0,188.0,,,,,,,,,,12,Synthesis and properties of multiprincipal component AlCoCrFeNiSix alloys,2010,10.1016/j.msea.2010.07.049,http://dx.doi.org/10.1016/j.msea.2010.07.049,10.1016/j.msea.2010.07.049,BCC,CAST,BCC,6.5,176
104,24,10.1016/j.msea.2010.07.049,Al1 Co1 Cr1 Fe1 Ni1 Si0.4,BCC,S,AC,,6.2,,C,25.0,1481.0,2444.0,,13.0,183.0,,,,,,,,,,12,Synthesis and properties of multiprincipal component AlCoCrFeNiSix alloys,2010,10.1016/j.msea.2010.07.049,http://dx.doi.org/10.1016/j.msea.2010.07.049,10.1016/j.msea.2010.07.049,BCC,CAST,BCC,6.2,169
105,24,10.1016/j.msea.2010.07.049,Al1 Co1 Cr1 Fe1 Ni1 Si0.6,BCC,S,AC,,6.0,,C,25.0,1834.0,2195.0,,3.0,178.0,,,,,,,,,,12,Synthesis and properties of multiprincipal component AlCoCrFeNiSix alloys,2010,10.1016/j.msea.2010.07.049,http://dx.doi.org/10.1016/j.msea.2010.07.049,10.1016/j.msea.2010.07.049,BCC,CAST,BCC,6.0,162
106,24,10.1016/j.msea.2010.07.049,Al1 Co1 Cr1 Fe1 Ni1 Si0.8,BCC+Im,M,AC,,5.8,,C,25.0,2179.0,2664.0,,2.0,,,,,,,,,,,12,Synthesis and properties of multiprincipal component AlCoCrFeNiSix alloys,2010,10.1016/j.msea.2010.07.049,http://dx.doi.org/10.1016/j.msea.2010.07.049,10.1016/j.msea.2010.07.049,other,CAST,BCC+Sec.,5.8,
107,25,10.1016/j.jallcom.2008.11.059,Al0.25 Co1 Cr1 Cu0.5 Fe1 Ni1 Ti0.5,FCC,S,AC,,7.4,,,25.0,,,,,198.0,,,,,,,,,,13,Atomic packing efficiency and phase transition in a high entropy alloy,2009,10.1016/j.jallcom.2008.11.059,http://dx.doi.org/10.1016/j.jallcom.2008.11.059,10.1016/j.jallcom.2008.11.059,FCC,CAST,FCC,7.4,192
108,25,10.1016/j.jallcom.2008.11.059,Al0.25 Co1 Cr1 Cu0.75 Fe1 Ni1 Ti0.5,FCC,S,AC,,7.5,,C,25.0,750.0,1970.0,,39.0,,103.0,,,,"plastic strain, stress strain curves not provided",,,,,13,Atomic packing efficiency and phase transition in a high entropy alloy,2009,10.1016/j.jallcom.2008.11.059,http://dx.doi.org/10.1016/j.jallcom.2008.11.059,10.1016/j.jallcom.2008.11.059,FCC,CAST,FCC,7.5,189
109,25,10.1016/j.jallcom.2008.11.059,Al0.5 Co1 Cr1 Cu0.5 Fe1 Ni1 Ti0.5,FCC+BCC,M,AC,,7.1,,C,25.0,1580.0,2389.0,,17.0,,161.0,,,,,,,,,13,Atomic packing efficiency and phase transition in a high entropy alloy,2009,10.1016/j.jallcom.2008.11.059,http://dx.doi.org/10.1016/j.jallcom.2008.11.059,10.1016/j.jallcom.2008.11.059,other,CAST,FCC+BCC,7.1,
110,25,10.1016/j.jallcom.2008.11.059,Al0.75 Co1 Cr1 Cu0.25 Fe1 Ni1 Ti0.5,FCC+BCC,M,AC,,6.8,,C,25.0,1900.0,2697.0,,12.0,,164.0,,,,,,,,,13,Atomic packing efficiency and phase transition in a high entropy alloy,2009,10.1016/j.jallcom.2008.11.059,http://dx.doi.org/10.1016/j.jallcom.2008.11.059,10.1016/j.jallcom.2008.11.059,other,CAST,FCC+BCC,6.8,
[...]
872,J131,10.3390/e21010015,Hf1 Mo1 Nb1 Ti1 Zr1,BCC,S,AC,,,,C,1000.0,721.0,,,,,,,,,,,,,,127,"Effects of Mo, Nb, Ta, Ti, and Zr on Mechanical Properties of Equiatomic Hf-Mo-Nb-Ta-Ti-Zr Alloys",2018,10.3390/e21010015,http://dx.doi.org/10.3390/e21010015,10.3390/e21010015,BCC,CAST,BCC,8.7,128
873,J131,10.3390/e21010015,Hf1 Mo1 Nb1 Ta1 Zr1,BCC,S,AC,,,,C,1000.0,927.0,,,,,,,,,,,,,,127,"Effects of Mo, Nb, Ta, Ti, and Zr on Mechanical Properties of Equiatomic Hf-Mo-Nb-Ta-Ti-Zr Alloys",2018,10.3390/e21010015,http://dx.doi.org/10.3390/e21010015,10.3390/e21010015,BCC,CAST,BCC,10.9,141
874,J131,10.3390/e21010015,Hf1 Mo1 Nb1 Ta1 Ti1,BCC,S,AC,,,,C,1000.0,778.0,,,,,,,,,,,,,,127,"Effects of Mo, Nb, Ta, Ti, and Zr on Mechanical Properties of Equiatomic Hf-Mo-Nb-Ta-Ti-Zr Alloys",2018,10.3390/e21010015,http://dx.doi.org/10.3390/e21010015,10.3390/e21010015,BCC,CAST,BCC,10.8,155
875,J131,10.3390/e21010015,Hf1 Mo1 Nb1 Ta1 Ti1 Zr1,BCC,S,AC,,,,C,1200.0,556.0,,,,,,,,,,,,,,127,"Effects of Mo, Nb, Ta, Ti, and Zr on Mechanical Properties of Equiatomic Hf-Mo-Nb-Ta-Ti-Zr Alloys",2018,10.3390/e21010015,http://dx.doi.org/10.3390/e21010015,10.3390/e21010015,BCC,CAST,BCC,9.9,137
876,J131,10.3390/e21010015,Hf1 Mo1 Ta1 Ti1 Zr1,BCC,S,AC,,,,C,1200.0,404.0,,,,,,,,,,,,,,127,"Effects of Mo, Nb, Ta, Ti, and Zr on Mechanical Properties of Equiatomic Hf-Mo-Nb-Ta-Ti-Zr Alloys",2018,10.3390/e21010015,http://dx.doi.org/10.3390/e21010015,10.3390/e21010015,BCC,CAST,BCC,10.2,143
877,J131,10.3390/e21010015,Hf1 Mo1 Nb1 Ti1 Zr1,BCC,S,AC,,,,C,1200.0,301.0,,,,,,,,,,,,,,127,"Effects of Mo, Nb, Ta, Ti, and Zr on Mechanical Properties of Equiatomic Hf-Mo-Nb-Ta-Ti-Zr Alloys",2018,10.3390/e21010015,http://dx.doi.org/10.3390/e21010015,10.3390/e21010015,BCC,CAST,BCC,8.7,128
878,J131,10.3390/e21010015,Hf1 Mo1 Nb1 Ta1 Zr1,BCC,S,AC,,,,C,1200.0,694.0,,,,,,,,,,,,,,127,"Effects of Mo, Nb, Ta, Ti, and Zr on Mechanical Properties of Equiatomic Hf-Mo-Nb-Ta-Ti-Zr Alloys",2018,10.3390/e21010015,http://dx.doi.org/10.3390/e21010015,10.3390/e21010015,BCC,CAST,BCC,10.9,141
879,J131,10.3390/e21010015,Hf1 Mo1 Nb1 Ta1 Ti1,BCC,S,AC,,,,C,1200.0,699.0,,,,,,,,,,,,,,127,"Effects of Mo, Nb, Ta, Ti, and Zr on Mechanical Properties of Equiatomic Hf-Mo-Nb-Ta-Ti-Zr Alloys",2018,10.3390/e21010015,http://dx.doi.org/10.3390/e21010015,10.3390/e21010015,BCC,CAST,BCC,10.8,155
880,J131,10.3390/e21010015,Hf1 Mo1 Nb1 Ta1 Zr1,BCC,S,AC,,,,C,1400.0,278.0,,,,,,,,,,,,,,127,"Effects of Mo, Nb, Ta, Ti, and Zr on Mechanical Properties of Equiatomic Hf-Mo-Nb-Ta-Ti-Zr Alloys",2018,10.3390/e21010015,http://dx.doi.org/10.3390/e21010015,10.3390/e21010015,BCC,CAST,BCC,10.9,141
881,J131,10.3390/e21010015,Hf1 Mo1 Nb1 Ta1 Ti1,BCC,S,AC,,,,C,1400.0,367.0,,,,,,,,,,,,,,127,"Effects of Mo, Nb, Ta, Ti, and Zr on Mechanical Properties of Equiatomic Hf-Mo-Nb-Ta-Ti-Zr Alloys",2018,10.3390/e21010015,http://dx.doi.org/10.3390/e21010015,10.3390/e21010015,BCC,CAST,BCC,10.8,155
882,J132,10.3390/coatings9010016,Co1 Cr1 Fe1 Ni1,FCC,S,VHP,0.0276,,,,,,,,,,,,,,,,,,,128,Microstructure and Properties of CoCrFeNi(WC) High-Entropy Alloy Coatings Prepared Using Mechanical Alloying and Hot Pressing Sintering,2018,10.3390/coatings9010016,http://dx.doi.org/10.3390/coatings9010016,10.3390/coatings9010016,FCC,POWDER,FCC,8.2,226
883,J132,10.3390/coatings9010016,C0.111 Co1 Cr1 Fe1 Ni1 W0.111,FCC,S,VHP,0.0189,,475.0,,,,,,,,,,,,,,,7.24 ,,128,Microstructure and Properties of CoCrFeNi(WC) High-Entropy Alloy Coatings Prepared Using Mechanical Alloying and Hot Pressing Sintering,2018,10.3390/coatings9010016,http://dx.doi.org/10.3390/coatings9010016,10.3390/coatings9010016,FCC,POWDER,FCC,8.5,
884,J132,10.3390/coatings9010016,C0.429 Co1 Cr1 Fe1 Ni1 W0.429,FCC,S,VHP,0.0182,,531.0,,,,,,,,,,,,,,,8.39 ,,128,Microstructure and Properties of CoCrFeNi(WC) High-Entropy Alloy Coatings Prepared Using Mechanical Alloying and Hot Pressing Sintering,2018,10.3390/coatings9010016,http://dx.doi.org/10.3390/coatings9010016,10.3390/coatings9010016,FCC,POWDER,FCC,9.1,
885,J133,10.5755/j01.ms.25.3.19452,Al0.267 Co1 Cr0.667 Fe0.667 Ni0.667 Ti0.2,FCC + BCC,M,SPS,,,515.0,C,25.0,2012.0,,,17.52 ,,,,,,,,,,,129,Enhancement of Mechanical Properties and Corrosion Resistance of Ultra-Fine Grain Al0.4FeCrCo1.5NiTi0.3 High-Entropy Alloy by MA and SPS Technologies,2019,10.5755/j01.ms.25.3.19452,http://dx.doi.org/10.5755/j01.ms.25.3.19452,10.5755/j01.ms.25.3.19452,other,POWDER,FCC+BCC,7.3,
886,J134,10.1007/s11661-018-4646-8,Hf1 Nb1 Ta1 Ti1 Zr1,BCC,S,HIP + CR,,,,T,25.0,1438.0,,,,,91.5,,,,"Hot Isostatically Pressed, reffered to as ""as-rolled""",,,,,130,Effect of Cold Deformation and Annealing on the Microstructure and Tensile Properties of a HfNbTaTiZr Refractory High Entropy Alloy,2018,10.1007/s11661-018-4646-8,http://dx.doi.org/10.1007/s11661-018-4646-8,10.1007/s11661-018-4646-8,BCC,OTHER,BCC,9.9,107
887,J134,10.1007/s11661-018-4646-8,Hf1 Nb1 Ta1 Ti1 Zr1,BCC,S,HIP + CR + A,,,,T,25.0,1159.0,,,,,99.2,,,,these are true strains elongation and UTS were removed,,,,,130,Effect of Cold Deformation and Annealing on the Microstructure and Tensile Properties of a HfNbTaTiZr Refractory High Entropy Alloy,2018,10.1007/s11661-018-4646-8,http://dx.doi.org/10.1007/s11661-018-4646-8,10.1007/s11661-018-4646-8,BCC,OTHER,BCC,9.9,107
888,J134,10.1007/s11661-018-4646-8,Hf1 Nb1 Ta1 Ti1 Zr1,BCC,S,HIP + CR + A,,,,T,25.0,1134.0,,,,,109.1,,,,,,,,,130,Effect of Cold Deformation and Annealing on the Microstructure and Tensile Properties of a HfNbTaTiZr Refractory High Entropy Alloy,2018,10.1007/s11661-018-4646-8,http://dx.doi.org/10.1007/s11661-018-4646-8,10.1007/s11661-018-4646-8,BCC,OTHER,BCC,9.9,107
889,J134,10.1007/s11661-018-4646-8,Hf1 Nb1 Ta1 Ti1 Zr1,BCC,S,HIP + CR + A,,,,T,25.0,1094.0,,,,,105.3,,,,,,,,,130,Effect of Cold Deformation and Annealing on the Microstructure and Tensile Properties of a HfNbTaTiZr Refractory High Entropy Alloy,2018,10.1007/s11661-018-4646-8,http://dx.doi.org/10.1007/s11661-018-4646-8,10.1007/s11661-018-4646-8,BCC,OTHER,BCC,9.9,107
890,J134,10.1007/s11661-018-4646-8,Hf1 Nb1 Ta1 Ti1 Zr1,BCC,S,HIP + CR + A,,,,T,25.0,1071.0,,,,,91.6,,,,,,,,,130,Effect of Cold Deformation and Annealing on the Microstructure and Tensile Properties of a HfNbTaTiZr Refractory High Entropy Alloy,2018,10.1007/s11661-018-4646-8,http://dx.doi.org/10.1007/s11661-018-4646-8,10.1007/s11661-018-4646-8,BCC,OTHER,BCC,9.9,107
891,J134,10.1007/s11661-018-4646-8,Hf1 Nb1 Ta1 Ti1 Zr1,BCC,S,HIP + CR + A,24.4,,,T,25.0,1107.0,,,,,92.6,,,,,,,,,130,Effect of Cold Deformation and Annealing on the Microstructure and Tensile Properties of a HfNbTaTiZr Refractory High Entropy Alloy,2018,10.1007/s11661-018-4646-8,http://dx.doi.org/10.1007/s11661-018-4646-8,10.1007/s11661-018-4646-8,BCC,OTHER,BCC,9.9,107
892,J134,10.1007/s11661-018-4646-8,Hf1 Nb1 Ta1 Ti1 Zr1,BCC,S,HIP + CR + A,31.3,,,T,25.0,1115.0,,,,,92.6,,,,,,,,,130,Effect of Cold Deformation and Annealing on the Microstructure and Tensile Properties of a HfNbTaTiZr Refractory High Entropy Alloy,2018,10.1007/s11661-018-4646-8,http://dx.doi.org/10.1007/s11661-018-4646-8,10.1007/s11661-018-4646-8,BCC,OTHER,BCC,9.9,107
893,J134,10.1007/s11661-018-4646-8,Hf1 Nb1 Ta1 Ti1 Zr1,BCC,S,HIP + CR + A,38.4,,,T,25.0,1114.0,,,,,101.3,,,,,,,,,130,Effect of Cold Deformation and Annealing on the Microstructure and Tensile Properties of a HfNbTaTiZr Refractory High Entropy Alloy,2018,10.1007/s11661-018-4646-8,http://dx.doi.org/10.1007/s11661-018-4646-8,10.1007/s11661-018-4646-8,BCC,OTHER,BCC,9.9,107
894,J134,10.1007/s11661-018-4646-8,Hf1 Nb1 Ta1 Ti1 Zr1,BCC,S,HIP + CR + A,50.1,,,,,,,,,,,,,,,,,,,130,Effect of Cold Deformation and Annealing on the Microstructure and Tensile Properties of a HfNbTaTiZr Refractory High Entropy Alloy,2018,10.1007/s11661-018-4646-8,http://dx.doi.org/10.1007/s11661-018-4646-8,10.1007/s11661-018-4646-8,BCC,OTHER,BCC,9.9,107
895,J134,10.1007/s11661-018-4646-8,Hf1 Nb1 Ta1 Ti1 Zr1,BCC,S,HIP + CR + A,21.9,,,,,,,,,,,,,,,,,,,130,Effect of Cold Deformation and Annealing on the Microstructure and Tensile Properties of a HfNbTaTiZr Refractory High Entropy Alloy,2018,10.1007/s11661-018-4646-8,http://dx.doi.org/10.1007/s11661-018-4646-8,10.1007/s11661-018-4646-8,BCC,OTHER,BCC,9.9,107
896,J134,10.1007/s11661-018-4646-8,Hf1 Nb1 Ta1 Ti1 Zr1,BCC,S,HIP + CR + A,75.5,,,,,,,,,,,,,,,,,,,130,Effect of Cold Deformation and Annealing on the Microstructure and Tensile Properties of a HfNbTaTiZr Refractory High Entropy Alloy,2018,10.1007/s11661-018-4646-8,http://dx.doi.org/10.1007/s11661-018-4646-8,10.1007/s11661-018-4646-8,BCC,OTHER,BCC,9.9,107
897,J135,10.1080/02670836.2018.1446267,Al1 Nb1 Ti1 Zr1,B2,S,AC,250.0,,422.0,C,25.0,1509.0,,8.6,,,,,,,,,,5.85,,131,Microstructure and mechanical properties of a novel refractory AlNbTiZr high-entropy alloy,2018,10.1080/02670836.2018.1446267,http://dx.doi.org/10.1080/02670836.2018.1446267,10.1080/02670836.2018.1446267,other,CAST,B2,5.7,
898,J135,10.1080/02670836.2018.1446267,Al1 Nb1 Ti1 Zr1,B2 + Zr5Al3,M,A,,,418.0,C,25.0,1579.0,,17.8,,,,,,,,,,,,131,Microstructure and mechanical properties of a novel refractory AlNbTiZr high-entropy alloy,2018,10.1080/02670836.2018.1446267,http://dx.doi.org/10.1080/02670836.2018.1446267,10.1080/02670836.2018.1446267,other,ANNEAL,B2+Sec.,5.7,
899,J135-18,10.1016/j.matlet.2015.08.099,Al1 Nb1 Ti1 V1 Zr0.5,,,,,,,C,25.0,1480.0,,50.0,,,,,,,,,,5.64,,132,An AlNbTiVZr0.5 high-entropy alloy combining high specific strength and good ductility,2015,10.1016/j.matlet.2015.08.099,http://dx.doi.org/10.1016/j.matlet.2015.08.099,10.1016/j.matlet.2015.08.099,other,,,5.6,
900,J135-19,10.1179/1743284715Y.0000000032,Al1 Nb1 Ti1 Zr1,,,,,,539.6,C,25.0,1080.0,,5.9,,,,,,,,,,5.79,,133,"Effect of Al on structure and mechanical properties of AlxNbTiVZr (x = 0, 0.5, 1, 1.5) high entropy alloys",2015,10.1179/1743284715Y.0000000032,http://dx.doi.org/10.1179/1743284715y.0000000032,10.1179/1743284715Y.0000000032,other,,,5.7,
901,J135-24,10.1016/j.actamat.2012.11.032,Nb1 Ti1 V1 Zr1,,,,,,335.0,C,25.0,1105.0,,50.0,,,,,,,,,,6.52,,134,"Low-density, refractory multi-principal element alloys of the Cr–Nb–Ti–V–Zr system: Microstructure and phase analysis",2013,10.1016/j.actamat.2012.11.032,http://dx.doi.org/10.1016/j.actamat.2012.11.032,10.1016/j.actamat.2012.11.032,other,,,6.5,
902,J135-24,10.1016/j.actamat.2012.11.032,Cr1 Nb1 Ti1 Zr1,,,,,,418.0,C,25.0,1260.0,,6.0,,,,,,,,,,6.67,,134,"Low-density, refractory multi-principal element alloys of the Cr–Nb–Ti–V–Zr system: Microstructure and phase analysis",2013,10.1016/j.actamat.2012.11.032,http://dx.doi.org/10.1016/j.actamat.2012.11.032,10.1016/j.actamat.2012.11.032,other,,,6.6,
903,new_ref_2,10.1088/0256-307X/35/3/036102,Al1 Cr1 Fe1 Mo0.5 Ni1,BCC+B2,M,AC,,,623.7,C,25.0,1914.1,4023.6,,27.9,,,,,,,,,,,264,Microstructures and Mechanical Properties of AlCrFeNiMo 0.5 Ti  x  High Entropy Alloys,2018,10.1088/0256-307X/35/3/036102,http://dx.doi.org/10.1088/0256-307x/35/3/036102,10.1088/0256-307X/35/3/036102,other,CAST,BCC+B2,6.8,
904,new_ref_2,10.1088/0256-307X/35/3/036102,Al1 Cr1 Fe1 Mo0.5 Ni1 Ti0.25,BCC+B2,M,AC,,,712.0,C,25.0,2161.7,3641.5,,14.3,,,,,,,,,,,264,Microstructures and Mechanical Properties of AlCrFeNiMo 0.5 Ti  x  High Entropy Alloys,2018,10.1088/0256-307X/35/3/036102,http://dx.doi.org/10.1088/0256-307x/35/3/036102,10.1088/0256-307X/35/3/036102,other,CAST,BCC+B2,6.6,
905,new_ref_2,10.1088/0256-307X/35/3/036102,Al1 Cr1 Fe1 Mo0.5 Ni1 Ti0.4,BCC+B2,M,AC,,,731.9,C,25.0,2185.1,3673.4,,14.8,,,,,,,,,,,264,Microstructures and Mechanical Properties of AlCrFeNiMo 0.5 Ti  x  High Entropy Alloys,2018,10.1088/0256-307X/35/3/036102,http://dx.doi.org/10.1088/0256-307x/35/3/036102,10.1088/0256-307X/35/3/036102,other,CAST,BCC+B2,6.5,
906,new_ref_2,10.1088/0256-307X/35/3/036102,Al1 Cr1 Fe1 Mo0.5 Ni1 Ti0.5,BCC+B2,M,AC,,,751.7,C,25.0,2228.7,3166.2,,10.4,,,,,,,,,,,264,Microstructures and Mechanical Properties of AlCrFeNiMo 0.5 Ti  x  High Entropy Alloys,2018,10.1088/0256-307X/35/3/036102,http://dx.doi.org/10.1088/0256-307x/35/3/036102,10.1088/0256-307X/35/3/036102,other,CAST,BCC+B2,6.5,
907,new_ref_2,10.1088/0256-307X/35/3/036102,Al1 Cr1 Fe1 Mo0.5 Ni1 Ti0.6,BCC+B2,M,AC,,,756.1,C,25.0,1314.5,1314.5,,,,,,,,,,,,,264,Microstructures and Mechanical Properties of AlCrFeNiMo 0.5 Ti  x  High Entropy Alloys,2018,10.1088/0256-307X/35/3/036102,http://dx.doi.org/10.1088/0256-307x/35/3/036102,10.1088/0256-307X/35/3/036102,other,CAST,BCC+B2,6.4,
908,new_ref_2,10.1088/0256-307X/35/3/036102,Al1 Cr1 Fe1 Mo0.5 Ni1 Ti0.75,BCC+B2,M,AC,,,766.2,C,25.0,618.8,618.8,,,,,,,,,,,,,264,Microstructures and Mechanical Properties of AlCrFeNiMo 0.5 Ti  x  High Entropy Alloys,2018,10.1088/0256-307X/35/3/036102,http://dx.doi.org/10.1088/0256-307x/35/3/036102,10.1088/0256-307X/35/3/036102,other,CAST,BCC+B2,6.4,
909,new_ref_4,10.1016/j.matdes.2018.06.003,Al1 Cr1 Mo1 Nb1,Laves (C14)+A15,M,A,,,,,,,,,,,,,,,,,,,,265,"Phase equilibria, mechanical properties and design of quaternary refractory high entropy alloys",2018,10.1016/j.matdes.2018.06.003,http://dx.doi.org/10.1016/j.matdes.2018.06.003,10.1016/j.matdes.2018.06.003,other,ANNEAL,Other,7.2,
910,new_ref_4,10.1016/j.matdes.2018.06.003,Al1 Cr1 Mo1 Nb1,Laves (C14)+A15,M,AC,,,,,,,,,,,,,,,,,,,,265,"Phase equilibria, mechanical properties and design of quaternary refractory high entropy alloys",2018,10.1016/j.matdes.2018.06.003,http://dx.doi.org/10.1016/j.matdes.2018.06.003,10.1016/j.matdes.2018.06.003,other,CAST,Other,7.2,
911,new_ref_4,10.1016/j.matdes.2018.06.003,Al1 Hf1 Nb1 Ti1,B2,S,A,,,,,,,,,,,,,,,,,,,,265,"Phase equilibria, mechanical properties and design of quaternary refractory high entropy alloys",2018,10.1016/j.matdes.2018.06.003,http://dx.doi.org/10.1016/j.matdes.2018.06.003,10.1016/j.matdes.2018.06.003,other,ANNEAL,B2,7.7,
912,new_ref_4,10.1016/j.matdes.2018.06.003,Al1 Hf1 Nb1 Ti1,B2,S,AC,,,,,,,,,,,,,,,,,,,,265,"Phase equilibria, mechanical properties and design of quaternary refractory high entropy alloys",2018,10.1016/j.matdes.2018.06.003,http://dx.doi.org/10.1016/j.matdes.2018.06.003,10.1016/j.matdes.2018.06.003,other,CAST,B2,7.7,
913,new_ref_4,10.1016/j.matdes.2018.06.003,Al1 Hf1 Ta1 Ti1,B2,S,A,,,,,,,,,,,,,,,,,,,,265,"Phase equilibria, mechanical properties and design of quaternary refractory high entropy alloys",2018,10.1016/j.matdes.2018.06.003,http://dx.doi.org/10.1016/j.matdes.2018.06.003,10.1016/j.matdes.2018.06.003,other,ANNEAL,B2,9.7,
914,new_ref_4,10.1016/j.matdes.2018.06.003,Al1 Hf1 Ta1 Ti1,B2,S,AC,,,,,,,,,,,,,,,,,,,,265,"Phase equilibria, mechanical properties and design of quaternary refractory high entropy alloys",2018,10.1016/j.matdes.2018.06.003,http://dx.doi.org/10.1016/j.matdes.2018.06.003,10.1016/j.matdes.2018.06.003,other,CAST,B2,9.7,
915,new_ref_4,10.1016/j.matdes.2018.06.003,Al1 Mo1 Nb1 Ti1,BCC+A15,M,A,,,,,,,,,,,,,,,,,,,,265,"Phase equilibria, mechanical properties and design of quaternary refractory high entropy alloys",2018,10.1016/j.matdes.2018.06.003,http://dx.doi.org/10.1016/j.matdes.2018.06.003,10.1016/j.matdes.2018.06.003,other,ANNEAL,BCC+Sec.,6.5,
916,new_ref_4,10.1016/j.matdes.2018.06.003,Al1 Mo1 Nb1 Ti1,BCC,S,AC,,,509.0,,,,,,,,,,,,,,,,,265,"Phase equilibria, mechanical properties and design of quaternary refractory high entropy alloys",2018,10.1016/j.matdes.2018.06.003,http://dx.doi.org/10.1016/j.matdes.2018.06.003,10.1016/j.matdes.2018.06.003,BCC,CAST,BCC,6.5,151
917,new_ref_4,10.1016/j.matdes.2018.06.003,Al1 Nb1 Ta1 Ti1,BCC+A15,M,A,,,,,,,,,,,,,,,,,,,,265,"Phase equilibria, mechanical properties and design of quaternary refractory high entropy alloys",2018,10.1016/j.matdes.2018.06.003,http://dx.doi.org/10.1016/j.matdes.2018.06.003,10.1016/j.matdes.2018.06.003,other,ANNEAL,BCC+Sec.,8.2,
918,new_ref_4,10.1016/j.matdes.2018.06.003,Al1 Nb1 Ta1 Ti1,BCC,S,AC,,,458.0,,,,,,,,,,,,,,,,,265,"Phase equilibria, mechanical properties and design of quaternary refractory high entropy alloys",2018,10.1016/j.matdes.2018.06.003,http://dx.doi.org/10.1016/j.matdes.2018.06.003,10.1016/j.matdes.2018.06.003,BCC,CAST,BCC,8.2,120
919,new_ref_4,10.1016/j.matdes.2018.06.003,Cr1 Mo1 Ta1 Ti1,BCC,S,A,,,555.0,,,,,,,,,,,,,,,,,265,"Phase equilibria, mechanical properties and design of quaternary refractory high entropy alloys",2018,10.1016/j.matdes.2018.06.003,http://dx.doi.org/10.1016/j.matdes.2018.06.003,10.1016/j.matdes.2018.06.003,BCC,ANNEAL,BCC,9.9,219
920,new_ref_4,10.1016/j.matdes.2018.06.003,Cr1 Mo1 Ta1 Ti1,BCC,S,AC,,,539.0,,,,,,,,,,,,,,,,,265,"Phase equilibria, mechanical properties and design of quaternary refractory high entropy alloys",2018,10.1016/j.matdes.2018.06.003,http://dx.doi.org/10.1016/j.matdes.2018.06.003,10.1016/j.matdes.2018.06.003,BCC,CAST,BCC,9.9,219
921,new_ref_4,10.1016/j.matdes.2018.06.003,Cr1 Nb1 Ta1 Ti1,BCC+Laves (C15),M,A,,,,,,,,,,,,,,,,,,,,265,"Phase equilibria, mechanical properties and design of quaternary refractory high entropy alloys",2018,10.1016/j.matdes.2018.06.003,http://dx.doi.org/10.1016/j.matdes.2018.06.003,10.1016/j.matdes.2018.06.003,other,ANNEAL,BCC+Sec.,9.4,
922,new_ref_4,10.1016/j.matdes.2018.06.003,Cr1 Nb1 Ta1 Ti1,BCC,S,AC,,,495.0,,,,,,,,,,,,,,,,,265,"Phase equilibria, mechanical properties and design of quaternary refractory high entropy alloys",2018,10.1016/j.matdes.2018.06.003,http://dx.doi.org/10.1016/j.matdes.2018.06.003,10.1016/j.matdes.2018.06.003,BCC,CAST,BCC,9.4,162
923,new_ref_4,10.1016/j.matdes.2018.06.003,Cr1 Nb1 Ti1 W1,BCC+Laves (C15),M,A,,,630.0,,,,,,,,,,,,,,,,,265,"Phase equilibria, mechanical properties and design of quaternary refractory high entropy alloys",2018,10.1016/j.matdes.2018.06.003,http://dx.doi.org/10.1016/j.matdes.2018.06.003,10.1016/j.matdes.2018.06.003,other,ANNEAL,BCC+Sec.,9.9,
924,new_ref_4,10.1016/j.matdes.2018.06.003,Cr1 Nb1 Ti1 W1,BCC,S,AC,,,630.0,,,,,,,,,,,,,,,,,265,"Phase equilibria, mechanical properties and design of quaternary refractory high entropy alloys",2018,10.1016/j.matdes.2018.06.003,http://dx.doi.org/10.1016/j.matdes.2018.06.003,10.1016/j.matdes.2018.06.003,BCC,CAST,BCC,9.9,217
925,new_ref_4,10.1016/j.matdes.2018.06.003,Hf1 Nb1 Ta1 Ti1,BCC,S,A,,,280.0,,,,,,,,,,,,,,,,,265,"Phase equilibria, mechanical properties and design of quaternary refractory high entropy alloys",2018,10.1016/j.matdes.2018.06.003,http://dx.doi.org/10.1016/j.matdes.2018.06.003,10.1016/j.matdes.2018.06.003,BCC,ANNEAL,BCC,10.9,119
926,new_ref_4,10.1016/j.matdes.2018.06.003,Hf1 Nb1 Ta1 Ti1,BCC,S,AC,,,270.0,,,,,,,,,,,,,,,,,265,"Phase equilibria, mechanical properties and design of quaternary refractory high entropy alloys",2018,10.1016/j.matdes.2018.06.003,http://dx.doi.org/10.1016/j.matdes.2018.06.003,10.1016/j.matdes.2018.06.003,BCC,CAST,BCC,10.9,119
927,new_ref_4,10.1016/j.matdes.2018.06.003,Mo1 Nb1 Ta1 Ti1 W1,BCC,S,A,,,482.0,,,,,,,,,,,,,,,,,265,"Phase equilibria, mechanical properties and design of quaternary refractory high entropy alloys",2018,10.1016/j.matdes.2018.06.003,http://dx.doi.org/10.1016/j.matdes.2018.06.003,10.1016/j.matdes.2018.06.003,BCC,ANNEAL,BCC,11.8,222
928,new_ref_4,10.1016/j.matdes.2018.06.003,Mo1 Nb1 Ta1 Ti1 W1,BCC,S,AC,,,446.0,,,,,,,,,,,,,,,,,265,"Phase equilibria, mechanical properties and design of quaternary refractory high entropy alloys",2018,10.1016/j.matdes.2018.06.003,http://dx.doi.org/10.1016/j.matdes.2018.06.003,10.1016/j.matdes.2018.06.003,BCC,CAST,BCC,11.8,222
929,new_ref_4,10.1016/j.matdes.2018.06.003,Mo1 Nb1 Ta1 Ti1,BCC,S,A,,,407.0,,,,,,,,,,,,,,,,,265,"Phase equilibria, mechanical properties and design of quaternary refractory high entropy alloys",2018,10.1016/j.matdes.2018.06.003,http://dx.doi.org/10.1016/j.matdes.2018.06.003,10.1016/j.matdes.2018.06.003,BCC,ANNEAL,BCC,10.0,179
930,new_ref_4,10.1016/j.matdes.2018.06.003,Mo1 Nb1 Ta1 Ti1,BCC,S,AC,,,431.0,,,,,,,,,,,,,,,,,265,"Phase equilibria, mechanical properties and design of quaternary refractory high entropy alloys",2018,10.1016/j.matdes.2018.06.003,http://dx.doi.org/10.1016/j.matdes.2018.06.003,10.1016/j.matdes.2018.06.003,BCC,CAST,BCC,10.0,179