File: 2018_data/2018_data.csv
REFERENCE: tag,REFERENCE: doi,FORMULA,PROPERTY: Type of phases,PROPERTY: Single/Multiphase,PROPERTY: synthesis method,PROPERTY: grain size ($\mu$m),PROPERTY: ROM Density (g/cm$^3$),PROPERTY: HV,PROPERTY: Type of test,PROPERTY: Test temperature ($^\circ$C),PROPERTY: YS (MPa),PROPERTY: UTS (MPa),PROPERTY: Elongation (%),PROPERTY: Elongation plastic (%),PROPERTY: ROM Young modulus (GPa),PROPERTY: Exp. Young modulus (GPa),PROPERTY: O content (wppm),PROPERTY: N content (wppm),PROPERTY: C content (wppm),REFERENCE: comment
4,10.1016/j.jmmm.2014.07.023,Al0.25CoFeNi,FCC,S,AC,,7.9,138,C,25,158,,,,196,,,,,
4,10.1016/j.jmmm.2014.07.023,Al0.5CoFeNi,FCC+BCC,M,AC,,7.4,212,C,25,346,,,,187,,,,,
4,10.1016/j.jmmm.2014.07.023,Al0.75CoFeNi,FCC+BCC,M,AC,,7,385,C,25,794,,,,179,,,,,
4,10.1016/j.jmmm.2014.07.023,AlCoFeNi,BCC,S,AC,,6.6,456,C,25,964,,,,173,,,,,
4,10.1016/j.jmmm.2014.07.023,CoFeNi,FCC,S,AC,,8.5,125,C,25,204,,,,207,,,,,
4,10.1016/j.jmmm.2014.07.023,CoFeNi,FCC,S,AC,,8.5,125,C,25,209,,,,207,,,,,
4,10.1016/j.jmmm.2014.07.023,CoFeNiSi0.25,FCC,S,AC,,7.7,149,C,25,196,,,,194,,,,,
4,10.1016/j.jmmm.2014.07.023,CoFeNiSi0.5,FCC+Ni3Si,M,AC,,7.1,287,C,25,476,,,,,,,,,
4,10.1016/j.jmmm.2014.07.023,CoFeNiSi0.75,FCC+Ni3Si,M,AC,,6.6,570,C,25,1301,,,,,,,,,
5,10.1016/j.actamat.2014.08.026,CoCrFeNi,FCC,S,CR,24,8.2,,T,25,274,708,39,,225,,,,,elongation is total
5,10.1016/j.actamat.2014.08.026,CoCrMnNi,FCC,S,CR,36,8.1,,T,25,282,694,44,,222,,,,,elongation is total
5,10.1016/j.actamat.2014.08.026,CoCrNi,FCC,S,CR,41,8.3,,T,25,300,860,60,,229,,,,,elongation is total
5,10.1016/j.actamat.2014.08.026,CoFeMnNi,FCC,S,CR,48,8.2,,T,25,170,550,41,,205,,,,,elongation is total
5,10.1016/j.actamat.2014.08.026,CoFeNi,FCC,S,CR,28,8.5,,T,25,211,513,31,,207,,,,,elongation is total
5,10.1016/j.actamat.2014.08.026,CoMnNi,FCC,S,CR,32,8.4,,T,25,231,653,38,,202,,,,,elongation is total
5,10.1016/j.actamat.2014.08.026,FeMnNi,FCC,S,CR,30,8.1,,T,25,221,602,36,,203,,,,,elongation is total
6,10.1016/j.intermet.2015.01.004,CoCrFeNb0.103Ni,FCC+Laves (C14),M,AC,150-200,8.2,,T,25,318,622,19,,,,,,,all YS recorded as +1 MPa
6,10.1016/j.intermet.2015.01.004,CoCrFeNb0.155Ni,FCC+Laves (C14),M,AC,150-200,8.2,,T,25,322,744,23,,,,,,,all YS recorded as +1 MPa
6,10.1016/j.intermet.2015.01.004,CoCrFeNb0.206Ni,FCC+Laves (C14),M,AC,150-200,8.2,,T,25,403,807,9,,,,,,,all YS recorded as +1 MPa
6,10.1016/j.intermet.2015.01.004,CoCrFeNb0.309Ni,FCC+Laves (C14),M,AC,150-200,8.2,,T,25,479,879,4,,,,,,,all YS recorded as +1 MPa
6,10.1016/j.intermet.2015.01.004,CoCrFeNb0.412Ni,FCC+Laves (C14),M,AC,150-200,8.2,,T,25,638,1004,1,,,,,,,all YS recorded as +1 MPa
6,10.1016/j.intermet.2015.01.004,CoCrFeNi,FCC,S,AC,150-200,8.2,,T,25,148,413,48,,225,,,,,all YS recorded as +1 MPa
7,10.1016/j.jallcom.2009.08.090,Al0.25CoCrFeNi,FCC,S,A,,7.7,110,,25,,,,,216,,,,,
7,10.1016/j.jallcom.2009.08.090,Al0.25CoCrFeNi,FCC,S,A,,7.7,113,,25,,,,,216,,,,,
7,10.1016/j.jallcom.2009.08.090,Al0.375CoCrFeNi,FCC,S,A,,7.5,131,,25,,,,,211,,,,,
7,10.1016/j.jallcom.2009.08.090,Al0.375CoCrFeNi,FCC,S,A,,7.5,196,,25,,,,,211,,,,,
7,10.1016/j.jallcom.2009.08.090,Al0.5CoCrFeNi,FCC+BCC,M,A,,7.3,159,,25,,,,,208,,,,,
7,10.1016/j.jallcom.2009.08.090,Al0.5CoCrFeNi,FCC+BCC,M,A,,7.3,209,,25,,,,,208,,,,,
7,10.1016/j.jallcom.2009.08.090,Al0.75CoCrFeNi,FCC+BCC,M,A,,7,388,,25,,,,,200,,,,,
7,10.1016/j.jallcom.2009.08.090,Al0.75CoCrFeNi,FCC+BCC,M,A,,7,280,,25,,,,,200,,,,,
7,10.1016/j.jallcom.2009.08.090,Al0.875CoCrFeNi,BCC,S,A,,6.9,538,,25,,,,,197,,,,,
7,10.1016/j.jallcom.2009.08.090,Al0.875CoCrFeNi,FCC+BCC,M,A,,6.9,361,,25,,,,,197,,,,,
7,10.1016/j.jallcom.2009.08.090,Al1.25CoCrFeNi,BCC,S,A,,6.5,487,,25,,,,,188,,,,,
7,10.1016/j.jallcom.2009.08.090,Al1.25CoCrFeNi,BCC,S,A,,6.5,499,,25,,,,,188,,,,,
7,10.1016/j.jallcom.2009.08.090,Al1.5CoCrFeNi,BCC,S,A,,6.2,484,,25,,,,,183,,,,,
7,10.1016/j.jallcom.2009.08.090,Al1.5CoCrFeNi,BCC,S,A,,6.2,517,,25,,,,,183,,,,,
7,10.1016/j.jallcom.2009.08.090,Al2CoCrFeNi,BCC,S,A,,5.9,509,,25,,,,,173,,,,,
7,10.1016/j.jallcom.2009.08.090,Al2CoCrFeNi,BCC,S,A,,5.9,512,,25,,,,,173,,,,,
7,10.1016/j.jallcom.2009.08.090,AlCoCrFeNi,BCC,S,A,,6.7,484,,25,,,,,194,,,,,
7,10.1016/j.jallcom.2009.08.090,AlCoCrFeNi,FCC+BCC,M,A,,6.7,433,,25,,,,,194,,,,,
7,10.1016/j.jallcom.2009.08.090,CoCrFeNi,FCC,S,A,,8.2,116,,25,,,,,225,,,,,
7,10.1016/j.jallcom.2009.08.090,CoCrFeNi,FCC,S,A,,8.2,113,,25,,,,,225,,,,,
8,10.1007/s11837-013-0753-6,Al0.5CoCrFeMo0.5Ni,FCC+Sigma,M,AC,,7.7,425,,25,,,,,,,,,,
8,10.1007/s11837-013-0753-6,Al1.5CoCrFeMo0.5Ni,B2+Sigma,M,AC,,6.6,655,,25,,,,,,,,,,
8,10.1007/s11837-013-0753-6,Al2CoCrFeMo0.5Ni,BCC + B2,S,AC,,6.3,605,,25,,,,,185,,,,,
8,10.1007/s11837-013-0753-6,AlCoCrFeMo0.5Ni,B2+Sigma,M,AC,,7.1,715,,25,,,,,,,,,,
8,10.1007/s11837-013-0753-6,CoCrFeMo0.5Ni,FCC+Sigma,M,AC,,8.5,210,,25,,,,,,,,,,
9,10.1016/j.msea.2008.12.053,Al0.5CoCrFeNiTi,BCC+Laves,M,AC,,6.6,,C,25,,1600,,10,,107,,,,elongation is plastic
9,10.1016/j.msea.2008.12.053,Al1.5CoCrFeNiTi,BCC + BCC,S,AC,,5.9,,C,25,,2110,,10,,133,,,,elongation is plastic
9,10.1016/j.msea.2008.12.053,Al2CoCrFeNiTi,BCC + BCC,S,AC,,5.6,643,C,25,,1030,,5,,94,,,,elongation is plastic
9,10.1016/j.msea.2008.12.053,AlCoCrFeNiTi,BCC+Laves,M,AC,0.1-0.2,6.2,,C,25,,2280,,6,,148,,,,elongation is plastic
9,10.1016/j.msea.2008.12.053,CoCrFeNiTi,FCC,S,AC,,7.2,,C,25,,2020,,9,,135,,,,elongation is plastic
10,10.1016/j.actamat.2011.06.041,Al0.2Co1.5CrFeNi1.5Ti,FCC+Ni3Ti,M,A,,7.2,717,,25,,,,,,,,,,
10,10.1016/j.actamat.2011.06.041,Al0.2Co1.5CrFeNi1.5Ti0.5,FCC,S,A,,7.6,487,,25,,,,,206,,,,,
10,10.1016/j.actamat.2011.06.041,Co1.5CrFeNi1.5Ti,FCC+Ni3Ti,M,A,,7.4,654,,25,,,,,,,,,,
10,10.1016/j.actamat.2011.06.041,Co1.5CrFeNi1.5Ti0.5,FCC ,S,A,,7.8,509,,25,,,,,211,,,,,
11,10.1016/j.matdes.2013.04.061,Al0.7Co0.3CrFeNi,FCC+BCC+B2,M,SPS,,6.8,624,C,25,2033,2635,8,,,,,,,labeled as plastic but is total
12,10.1016/C2013-0-14235-3,Al0.875CoCrFeNi,FCC+BCC,M,,,6.9,,,25,,,,,197,,,,,
13,10.1016/j.jallcom.2008.07.124,Al1.5CoCrFeNi,BCC,S,AC,,6.2,402,,25,,,,,183,,,,,
13,10.1016/j.jallcom.2008.07.124,Al2.5CoCrFeNi,BCC,S,AC,,5.6,487,,25,,,,,165,,,,,
13,10.1016/j.jallcom.2008.07.124,Al2CoCrFeNi,BCC,S,AC,,5.9,432,,25,,,,,173,,,,,
13,10.1016/j.jallcom.2008.07.124,Al3CoCrFeNi,BCC,S,AC,,5.3,506,,25,,,,,158,,,,,
13,10.1016/j.jallcom.2008.07.124,AlCoCrFeNi,BCC,S,AC,,6.7,395,,25,,,,,194,,,,,
13,10.1016/j.jallcom.2008.07.124,AlCrCuFeNi,FCC+BCC,M,AC,,6.8,342,,25,,,,,178,,,,,
13,10.1016/j.jallcom.2008.07.124,CoCrCuFeNi,FCC,S,AC,,8.3,286,,25,,,,,206,,,,,
13,10.1016/j.jallcom.2008.07.124,CrCuFeMnNi,FCC+BCC,M,AC,,8.1,296,,25,,,,,204,,,,,
13,10.1016/j.jallcom.2008.07.124,CrCuFeMoNi,FCC,S,AC,,8.7,263,,25,,,,,230,,,,,
14,10.1016/j.msea.2008.01.064,AlCoCrFeNi,BCC,S,AC,,6.7,,C,25,1251,2004,,33,194,,,,,plastic strain
18,10.1016/j.jallcom.2010.10.047,AlC0.1CoCrFeNi,BCC+eta,M,AC,,6.7,,C,25,957,2550,,11,,213,,,,plastic strain
18,10.1016/j.jallcom.2010.10.047,AlC0.2CoCrFeNi,BCC+eta,M,AC,,6.8,,C,25,906,2386,,9,,151,,,,
18,10.1016/j.jallcom.2010.10.047,AlC0.3CoCrFeNi,BCC+eta,M,AC,,6.8,,C,25,867,2178,,8,,137,,,,
18,10.1016/j.jallcom.2010.10.047,AlC0.4CoCrFeNi,BCC+eta,M,AC,,6.8,,C,25,1056,2375,,7,,156,,,,
18,10.1016/j.jallcom.2010.10.047,AlC0.5CoCrFeNi,BCC+eta,M,AC,,6.8,,C,25,1060,2250,,6,,181,,,,
18,10.1016/j.jallcom.2010.10.047,AlC1.5CoCrFeNi,BCC+ eta + graphite,M,AC,,7,,C,25,1255,2083,,6,,73,,,,
18,10.1016/j.jallcom.2010.10.047,AlCCoCrFeNi,BCC+ eta + graphite,M,AC,,6.9,,C,25,1251,2166,,7,,75,,,,
18,10.1016/j.jallcom.2010.10.047,AlCoCrFeNi,BCC,S,AC,,6.7,,C,25,1138,,,11,125,,,,,
19,10.1016/j.msea.2010.07.028,AlCoCrFeMo0.1Ni,BCC,S,AC,,6.8,,C,25,1804,2280,,9,196,,,,,plastic strain; equivalent usually to total
19,10.1016/j.msea.2010.07.028,AlCoCrFeMo0.2Ni,BCC+Im,M,AC,,6.9,,C,25,2456,2953,,3,,,,,,
19,10.1016/j.msea.2010.07.028,AlCoCrFeMo0.3Ni,BCC+Im,M,AC,,7,,C,25,2649,3208,,3,,,,,,
19,10.1016/j.msea.2010.07.028,AlCoCrFeMo0.4Ni,BCC+Im,M,AC,,7,,C,25,2670,3161,,3,,,,,,
19,10.1016/j.msea.2010.07.028,AlCoCrFeMo0.5Ni,BCC+Im,M,AC,,7.1,,C,25,2757,3036,,3,,,,,,
19,10.1016/j.msea.2010.07.028,AlCoCrFeNi,BCC,S,AC,,6.7,,C,25,1051,,,,194,,,,,
20,10.1016/j.msea.2011.10.110,AlCoCrFeNb0.1Ni,BCC,S,AC,,6.8,569,C,25,1641,3285,,17,192,,,,,plastic strain
20,10.1016/j.msea.2011.10.110,AlCoCrFeNb0.25Ni,BCC+Laves (C14),M,AC,,6.8,668,C,25,1959,3008,,11,,,,,,
20,10.1016/j.msea.2011.10.110,AlCoCrFeNb0.5Ni,BCC+Laves (C14),M,AC,,7,747,C,25,2473,3170,,4,,,,,,
20,10.1016/j.msea.2011.10.110,AlCoCrFeNb0.75Ni,BCC+Laves (C14),M,AC,,7,,,25,,,,,,,,,,
20,10.1016/j.msea.2011.10.110,AlCoCrFeNi,BCC,S,AC,,6.7,520,C,25,1373,3531,,25,194,,,,,
21,10.1002/adem.200900171,Al0.8CoCrCuFeNi,FCC+BCC,M,AC,,7.3,270,,25,,,,,187,,,,,
21,10.1002/adem.200900171,AlCo0.5CrFeMo0.5Ni,BCC+sigma,M,AC,,7,801,,25,,,,,,,,,,
21,10.1002/adem.200900171,AlCo1.5CrFeMo0.5Ni,BCC+sigma,M,AC,,7.2,741,,25,,,,,,,,,,
21,10.1002/adem.200900171,AlCo2CrFeMo0.5Ni,FCC+BCC+sigma,M,AC,200,7.3,586,,25,,,,,,,,,,
21,10.1002/adem.200900171,AlCoCrFeMo0.5Ni,BCC+sigma,M,AC,,7.1,796,,25,,,,,,,,,,
22,10.1016/j.wear.2009.10.013,AlCoCrFe1Mo0.5Ni,BCC+sigma,M,AC,,7,755,,25,,,,,,,,,,edited the composition from 0.5 to 1
22,10.1016/j.wear.2009.10.013,AlCoCrFe0.6Mo0.5Ni,BCC+sigma,M,AC,,7.1,754,,25,,,,,,,,,,
22,10.1016/j.wear.2009.10.013,AlCoCrFe1.5Mo0.5Ni,BCC+sigma,M,AC,,7.2,635,,25,,,,,,,,,,
22,10.1016/j.wear.2009.10.013,AlCoCrFe2Mo0.5Ni,BCC+sigma,M,AC,,7.2,639,,25,,,,,,,,,,
23,10.1016/j.intermet.2012.09.008,AlCoCrFeMo0.5,B2 + omega,M,AC,,6.8,857,,25,,,,,,,,,,changed from BCC to B2
23,10.1016/j.intermet.2012.09.008,AlCoCrFeMo0.5Ni,B2 + omega,M,AC,,7.1,730,,25,,,,,,,,,,changed from BCC to B2
23,10.1016/j.intermet.2012.09.008,AlCoCrFeMo0.5Ni0.5,B2 + omega,M,AC,,7,708,,25,,,,,,,,,,changed from BCC to B2
23,10.1016/j.intermet.2012.09.008,AlCoCrFeMo0.5Ni1.5,FCC+B2 + omega,M,AC,,7.2,586,,25,,,,,,,,,,changed from BCC to B2
23,10.1016/j.intermet.2012.09.008,AlCoCrFeMo0.5Ni2,FCC+B2 + omega,M,AC,,7.4,395,,25,,,,,,,,,,changed from BCC to B2
24,10.1016/j.msea.2010.07.049,AlCoCrFeNi,BCC,S,AC,,5.7,,C,25,1110,,,,169,,,,,
24,10.1016/j.msea.2010.07.049,AlCoCrFeNiSi,BCC+Im,M,AC,,5.7,,C,25,2411,2950,,1,,,,,,"plastic strain, stress strain curves not provided"
24,10.1016/j.msea.2010.07.049,AlCoCrFeNiSi0.2,BCC,S,AC,,6.5,,C,25,1265,2173,,14,188,,,,,
24,10.1016/j.msea.2010.07.049,AlCoCrFeNiSi0.4,BCC,S,AC,,6.2,,C,25,1481,2444,,13,183,,,,,
24,10.1016/j.msea.2010.07.049,AlCoCrFeNiSi0.6,BCC,S,AC,,6,,C,25,1834,2195,,3,178,,,,,
24,10.1016/j.msea.2010.07.049,AlCoCrFeNiSi0.8,BCC+Im,M,AC,,5.8,,C,25,2179,2664,,2,,,,,,
25,10.1016/j.jallcom.2008.11.059,Al0.25CoCrCu0.5FeNiTi0.5,FCC,S,AC,,7.4,,,25,,,,,198,,,,,
25,10.1016/j.jallcom.2008.11.059,Al0.25CoCrCu0.75FeNiTi0.5,FCC,S,AC,,7.5,,C,25,750,1970,,39,,103,,,,"plastic strain, stress strain curves not provided"
25,10.1016/j.jallcom.2008.11.059,Al0.5CoCrCu0.5FeNiTi0.5,FCC+BCC,M,AC,,7.1,,C,25,1580,2389,,17,,161,,,,
25,10.1016/j.jallcom.2008.11.059,Al0.75CoCrCu0.25FeNiTi0.5,FCC+BCC,M,AC,,6.8,,C,25,1900,2697,,12,,164,,,,
25,10.1016/j.jallcom.2008.11.059,CoCrCuFeNiTi0.5,FCC,S,AC,,7.8,,C,25,700,1650,,29,,93,,,,
26,10.1063/1.27345,AlCoCrFeNiTi,BCC+BCC,M,AC,,6.2,,C,25,1860,2580,10.7,9,,90,,,,"plastic strain, also provided elastic strain, added together for total"
26,10.1063/1.27345,AlCoCrFeNiTi0.5,BCC+BCC,M,AC,,6.4,178,C,25,2260,3140,24.4,23,,178,,,,
26,10.1063/1.27345,AlCoCrFeNiTi1.5,BCC+Laves (C14),M,AC,,6.1,,C,25,2220,2720,6.6,5,,160,,,,
27,10.1002/adem.200300567,AlCoCrFeNiTiVZr,,,AC,,6.3,780,,25,,,,,,,,,,
27,10.1002/adem.200300567,AlCoFeNiTiVZr,BCC,S,AC,,6.2,790,,25,,,,,143,,,,,
27,10.1002/adem.200300567,AlFeNiTiVZr,BCC,S,AC,,5.9,800,,25,,,,,132,,,,,
27,10.1002/adem.200300567,CoCrCuFeNiTiVZr,,,AC,,7.1,680,,25,,,,,168,,,,,
27,10.1002/adem.200300567,CoCrFeMoNiTiVZr,,,AC,,7.3,850,,25,,,,,193,,,,,
27,10.1002/adem.200300567,CoCuFeNiTiVZr,,,AC,,7.1,630,,25,,,,,,,,,,
27,10.1002/adem.200300567,CoFeMoNiTiVZr,,,AC,,7.3,790,,25,,,,,,,,,,
27,10.1002/adem.200300567,CuFeNiTiVZr,,,AC,,6.8,590,,25,,,,,142,,,,,
27,10.1002/adem.200300567,FeMoNiTiVZr,BCC+Im,M,AC,,7.1,740,,25,,,,,,,,,,
28,10.1016/j.actamat.2013.09.037,Al0.10CoCrFeMnNi,FCC,S,AC,,7.9,180,,25,,,,,216,,,,,
28,10.1016/j.actamat.2013.09.037,Al0.20CoCrFeMnNi,FCC,S,AC,,7.7,171,T,25,220,,56,,214,,,,,total elongation
28,10.1016/j.actamat.2013.09.037,Al0.38CoCrFeMnNi,FCC,S,AC,,7.5,182,T,25,244,,45,,209,,,,,
28,10.1016/j.actamat.2013.09.037,Al0.43CoCrFeMnNi,FCC+BCC,M,AC,,7.4,183,T,25,285,,35,,208,,,,,
28,10.1016/j.actamat.2013.09.037,Al0.49CoCrFeMnNi,FCC+BCC,M,AC,,7.4,220,T,25,331,,29,,206,,,,,
28,10.1016/j.actamat.2013.09.037,Al0.56CoCrFeMnNi,FCC+BCC,M,AC,,7.3,278,T,25,526,,16,,204,,,,,
28,10.1016/j.actamat.2013.09.037,Al0.62CoCrFeMnNi,FCC+BCC,M,AC,,7.2,405,T,25,833,,5,,203,,,,,
28,10.1016/j.actamat.2013.09.037,Al0.68CoCrFeMnNi,FCC+BCC,M,AC,,7.2,486,,25,,,,,202,,,,,
28,10.1016/j.actamat.2013.09.037,Al0.75CoCrFeMnNi,FCC+BCC,M,AC,,7.1,530,,25,,,,,200,,,,,
28,10.1016/j.actamat.2013.09.037,Al0.81CoCrFeMnNi,FCC+BCC,M,AC,,7,539,,25,,,,,199,,,,,
28,10.1016/j.actamat.2013.09.037,Al0.88CoCrFeMnNi,FCC+BCC,M,AC,,7,533,,25,,,,,197,,,,,
28,10.1016/j.actamat.2013.09.037,Al0.95CoCrFeMnNi,FCC+BCC,M,AC,,6.9,535,,25,,,,,196,,,,,
28,10.1016/j.actamat.2013.09.037,Al1.25CoCrFeMnNi,BCC,S,AC,,6.6,539,,25,,,,,190,,,,,
28,10.1016/j.actamat.2013.09.037,CoCrFeMnNi,FCC,S,AC,,8,176,T,25,208,,62,,219,,,,,
29,10.1016/j.jallcom.2014.12.157,CoCrFeMnNi,FCC,S,AC,300,8,144,C,25,,,,,,,,,,"plastic strain (called fracture strain, labeled e)"
29,10.1016/j.jallcom.2014.12.157,CoCrFeMnNi,FCC,S,A,350,8,135,C,25,230,,,75,219,,,,,
29,10.1016/j.jallcom.2014.12.157,CoCrFeMnNiV0.25,FCC,S,AC,120,7.9,151,C,25,,,,,,,,,,
29,10.1016/j.jallcom.2014.12.157,CoCrFeMnNiV0.25, FCC + sigma,S,A,130,7.9,144,C,25,200,,,75,215,,,,,added sigma
29,10.1016/j.jallcom.2014.12.157,CoCrFeMnNiV0.5,FCC,S,AC,220,7.8,186,C,25,,,,,,,,,,
29,10.1016/j.jallcom.2014.12.157,CoCrFeMnNiV0.5,FCC,S,A,250,7.8,275,C,25,620,,,75,211,,,,,
29,10.1016/j.jallcom.2014.12.157,CoCrFeMnNiV0.75,FCC+sigma,M,A,500,7.7,380,C,25,740,1325,,7.8,,,,,,
29,10.1016/j.jallcom.2014.12.157,CoCrFeMnNiV0.75,FCC+sigma,M,AC,500,7.7,342,C,25,,,,,,,,,,
29,10.1016/j.jallcom.2014.12.157,CoCrFeMnNiV1.0,FCC+sigma,M,A,12,7.7,636,C,25,1660,1845,,0.5,,,,,,
29,10.1016/j.jallcom.2014.12.157,CoCrFeMnNiV1.0,FCC+sigma,M,AC,,7.7,650,C,25,,,,,,,,,,
30,10.1016/j.msea.2010.05.052,Al0.3CrFe1.5MnNi0.5,FCC+BCC,M,AC,,7.2,297,,25,,,,,213,,,,,
30,10.1016/j.msea.2010.05.052,Al0.5CrFe1.5MnNi0.5,BCC,S,AC,,7,396,,25,,,,,206,,,,,
31,10.1016/j.jallcom.2013.03.253,AlCrFeNi,BCC + B2,M,AC,,6.3,472,C,25,1406,2927,,29,190,,,,,plastic strain; added B2
31,10.1016/j.jallcom.2013.03.253,AlCrFeNiMo,B2+sigma,M,AC,,7.2,905,,25,,,,,,,,,,changed BCC to B2
31,10.1016/j.jallcom.2013.03.253,AlCrFeNiMo0.2,BCC + B2,M,AC,,6.5,549,C,25,1487,3222,,29,197,,,,,added B2
31,10.1016/j.jallcom.2013.03.253,AlCrFeNiMo0.5,BCC + B2,M,AC,,6.8,622,C,25,1749,2644,,13,205,,,,,added B2
31,10.1016/j.jallcom.2013.03.253,AlCrFeNiMo0.8,B2+sigma,M,AC,,7,854,C,25,1513,1513,,0,,,,,,changed BCC to B2
32,10.3166/acsm.31.633-648,Al0.3CoCrCuFe,FCC,S,,,7.7,180,,25,,,,,194,,,,,
32,10.3166/acsm.31.633-648,Al0.5CoCrCuFe,FCC,S,,,7.4,207,,25,,,,,187,,,,,
32,10.3166/acsm.31.633-648,Al0.8CoCrCuFe,FCC+BCC,M,,,7,271,,25,,,,,177,,,,,
32,10.3166/acsm.31.633-648,Al1.3CoCrCuFe,FCC+BCC,M,,,6.5,476,,25,,,,,165,,,,,
32,10.3166/acsm.31.633-648,Al1.5CoCrCuFe,FCC+BCC,M,,,6.3,510,,25,,,,,167,,,,,
32,10.3166/acsm.31.633-648,Al1.8CoCrCuFe,FCC+BCC,M,,,6,557,,25,,,,,155,,,,,
32,10.3166/acsm.31.633-648,Al2.0CoCrCuFe,FCC+BCC,M,,,5.9,567,,25,,,,,152,,,,,
32,10.3166/acsm.31.633-648,Al2.3CoCrCuFe,FCC+BCC,M,,,5.7,603,,25,,,,,147,,,,,
32,10.3166/acsm.31.633-648,Al2.5CoCrCuFe,FCC+BCC,M,,,5.6,624,,25,,,,,144,,,,,
32,10.3166/acsm.31.633-648,Al2.8CoCrCuFe,BCC,S,,,5.5,657,,25,,,,,140,,,,,
32,10.3166/acsm.31.633-648,Al3.0CoCrCuFe,BCC,S,,,5.4,644,,25,,,,,138,,,,,
32,10.3166/acsm.31.633-648,AlCoCrCuFe,FCC+BCC,M,,,6.8,407,,25,,,,,172,,,,,
32,10.3166/acsm.31.633-648,CoCrCuFe,FCC,S,,,8.2,134,,25,,,,,206,,,,,
33,10.1016/j.intermet.2010.03.030,CoCrCu0.5FeNi,FCC,S,AC,,8.3,172,,25,,,,,214,,,,,
35,10.1016/j.intermet.2006.08.005,CoCrCuFeNiTi,FCC,S,AC,,7.4,,C,25,1272,1272,2,0,77,,,,,provides both
35,10.1016/j.intermet.2006.08.005,CoCrCuFeNiTi0.5,FCC,S,AC,,7.8,,C,25,700,1650,22,21.6,99,,,,,
35,10.1016/j.intermet.2006.08.005,CoCrCuFeNiTi0.8,FCC+Laves (C14),M,AC,,7.6,,C,25,1042,1848,3,2.11,128,,,,,
36,10.1149/1.27441,Al0.5B0.2CoCrCuFeNi,,,AC,,7.7,415,,25,,,,,,,,,,
36,10.1149/1.27441,Al0.5B0.6CoCrCuFeNi,,,AC,,7.7,505,,25,,,,,,,,,,
36,10.1149/1.27441,Al0.5BCoCrCuFeNi,,,AC,,7.8,736,,25,,,,,,,,,,
36,10.1149/1.27441,Al0.5CoCrCuFeNi,,,AC,,7.6,300,,25,,,,,193,,,,,
37,10.2320/matertrans.47.1395,Al0.5CoCrCuFeNi,FCC,S,AC,,7.6,225,,25,,,,,193,,,,,
37,10.2320/matertrans.47.1395,Al0.5CoCrCuFeNiTi,FCC+BCC+sigma,M,AC,,7,636,,25,,,,,,,,,,
37,10.2320/matertrans.47.1395,Al0.5CoCrCuFeNiTi0.2,FCC,S,AC,,7.5,272,,25,,,,,191,,,,,
37,10.2320/matertrans.47.1395,Al0.5CoCrCuFeNiTi0.4,FCC,S,AC,,7.3,321,,25,,,,,188,,,,,
37,10.2320/matertrans.47.1395,Al0.5CoCrCuFeNiTi0.6,FCC+BCC,M,AC,,7.2,458,,25,,,,,186,,,,,
37,10.2320/matertrans.47.1395,Al0.5CoCrCuFeNiTi0.8,FCC+BCC + sigma,M,AC,,7.1,590,,25,,,,,184,,,,,
37,10.2320/matertrans.47.1395,Al0.5CoCrCuFeNiTi1.2,FCC+BCC+sigma,M,AC,,6.9,646,,25,,,,,,,,,,
37,10.2320/matertrans.47.1395,Al0.5CoCrCuFeNiTi1.4,FCC+BCC+B2 +sigma + other,M,AC,,6.8,664,,25,,,,,,,,,,
37,10.2320/matertrans.47.1395,Al0.5CoCrCuFeNiTi1.6,FCC+BCC+B2 +other,M,AC,,6.7,657,,25,,,,,,,,,,
37,10.2320/matertrans.47.1395,Al0.5CoCrCuFeNiTi1.8,FCC+BCC+B2 +other,M,AC,,6.6,667,,25,,,,,,,,,,
37,10.2320/matertrans.47.1395,Al0.5CoCrCuFeNiTi2,FCC+BCC+B2 +other,M,AC,,6.5,696,,25,,,,,,,,,,
38,10.1007/s11661-006-0081-3,Al0.5CoCrCuFeNi,FCC,S,AC,,7.6,215,,25,,,,,193,,,,,
38,10.1007/s11661-006-0081-3,Al0.5CoCrCuFeNiV0.2,FCC,S,AC,,7.6,204,,25,,,,,191,,,,,
38,10.1007/s11661-006-0081-3,Al0.5CoCrCuFeNiV0.4,FCC+BCC,M,AC,,7.5,231,,25,,,,,189,,,,,
38,10.1007/s11661-006-0081-3,Al0.5CoCrCuFeNiV0.6,FCC+BCC+sigma,M,AC,,7.5,328,,25,,,,,,,,,,
38,10.1007/s11661-006-0081-3,Al0.5CoCrCuFeNiV0.8,FCC+BCC+sigma,M,AC,,7.4,447,,25,,,,,,,,,,
38,10.1007/s11661-006-0081-3,Al0.5CoCrCuFeNiV1.0,FCC+BCC+sigma,M,AC,,7.4,639,,25,,,,,,,,,,
38,10.1007/s11661-006-0081-3,Al0.5CoCrCuFeNiV1.2,BCC,S,AC,,7.3,579,,25,,,,,182,,,,,
38,10.1007/s11661-006-0081-3,Al0.5CoCrCuFeNiV1.4,BCC,S,AC,,7.3,577,,25,,,,,180,,,,,
38,10.1007/s11661-006-0081-3,Al0.5CoCrCuFeNiV1.6,BCC,S,AC,,7.2,594,,25,,,,,179,,,,,
38,10.1007/s11661-006-0081-3,Al0.5CoCrCuFeNiV1.8,BCC,S,AC,,7.2,597,,25,,,,,177,,,,,
38,10.1007/s11661-006-0081-3,Al0.5CoCrCuFeNiV2.0,BCC,S,AC,,7.2,587,,25,,,,,176,,,,,
39,10.1016/j.msea.2012.07.003,AlCoCrCuFeNi,FCC+BCC,M,AC,,7.1,472,,25,,,,,184,,,,,
39,10.1016/j.msea.2012.07.003,AlCoCuFeNdNi,Im,M,AC,,7.4,578,,25,,,,,,,,,,changed Nb to Nd
39,10.1016/j.msea.2012.07.003,AlCoCuFeNi,FCC+BCC,M,AC,,7,536,,25,,,,,164,,,,,
39,10.1016/j.msea.2012.07.003,AlCoCuFeNiSi,FCC+BCC,M,AC,,5.9,682,,25,,,,,145,,,,,
39,10.1016/j.msea.2012.07.003,AlCoCuFeNiTi,FCC+BCC,M,AC,,6.5,626,,25,,,,,156,,,,,
39,10.1016/j.msea.2012.07.003,AlCoCuFeNiZr,FCC+BCC+Im,M,AC,,6.9,472,,25,,,,,,,,,,
40,10.1016/j.msea.2008.08.025,AlCoCrCuFeMnNi,FCC+BCC+Im,M,AC,,7.1,,C,25,1005,,15,,,,,,,total elongation is reported
40,10.1016/j.msea.2008.08.025,AlCoCrCuFeNi,FCC+BCC,M,AC,,7.1,,C,25,1303,,24,,183,,,,,
40,10.1016/j.msea.2008.08.025,AlCoCrCuFeNiTi,FCC+BCC + BCC,M,AC,,6.6,,C,25,1234,,9,,174,,,,,
40,10.1016/j.msea.2008.08.025,AlCoCrCuFeNiV,FCC+BCC,M,AC,,6.9,,C,25,1469,,16,,175,,,,,
42,10.1016/j.matdes.2009.09.016,AlCoCrCuNiTi,BCC,S,,,6.4,,C,25,,1495,,8,,36,,,,plastic elongation is reported; no stress strain provided
42,10.1016/j.matdes.2009.09.016,AlCoCrCuNiTiY,Im,M,AC,,5.8,,C,25,,1192,,4,,37,,,,
42,10.1016/j.matdes.2009.09.016,AlCoCrCuNiTiY0.5,Im,M,AC,,6.1,,C,25,,1025,,3,,36,,,,
42,10.1016/j.matdes.2009.09.016,AlCoCrCuNiTiY0.8,Im,M,AC,,5.9,,C,25,,1325,,5,,38,,,,
43,10.1016/j.msea.2012.03.080,CoCuFeNi,FCC,S,AC,,8.6,,T,25,,480,,15,188,,,,,I think this is plastic elongation
43,10.1016/j.msea.2012.03.080,CoCuFeNiSn0.02,FCC,S,AC,,8.6,,T,25,,548,,17,187,,,,,
43,10.1016/j.msea.2012.03.080,CoCuFeNiSn0.04,FCC+Im,M,AC,,8.6,,T,25,,594,,18,,,,,,
43,10.1016/j.msea.2012.03.080,CoCuFeNiSn0.05,FCC+Im,M,AC,,8.6,,T,25,,615,,20,,,,,,
43,10.1016/j.msea.2012.03.080,CoCuFeNiSn0.07,FCC+Im,M,AC,,8.6,,T,25,,632,,19,,,,,,
43,10.1016/j.msea.2012.03.080,CoCuFeNiSn0.1,FCC+Im,M,AC,,8.6,,T,25,,602,,5,,,,,,
43,10.1016/j.msea.2012.03.080,CoCuFeNiSn0.2,FCC+Im,M,AC,,8.5,,T,25,,261,,2,,,,,,
43,10.1016/j.msea.2012.03.080,CoCuFeNiSn0.5,FCC+Im,M,AC,,8.3,,,25,,,,,,,,,,
44,10.1016/j.matdes.2012.08.019,CoCuFeMnNi,FCC,S,AC,,8.4,208,T,25,,478,,14,190,,,,,i think this is plastic
44,10.1016/j.matdes.2012.08.019,CoCuFeMnNiSn0.03,FCC,S,AC,,8.4,192,T,25,,465,,18,,,,,,
44,10.1016/j.matdes.2012.08.019,CoCuFeMnNiSn0.05,FCC+Im,M,AC,,8.4,205,T,25,,475,,12,,,,,,
44,10.1016/j.matdes.2012.08.019,CoCuFeMnNiSn0.08,FCC+Im,M,AC,,8.3,219,T,25,,425,,7,,,,,,
44,10.1016/j.matdes.2012.08.019,CoCuFeMnNiSn0.10,FCC+Im,M,AC,,8.3,253,T,25,,470,,6,,,,,,
44,10.1016/j.matdes.2012.08.019,CoCuFeMnNiSn0.20,FCC+Im,M,AC,,8.3,319,T,25,,368,,2,,,,,,
45,10.1016/j.msea.2011.11.063,AlCrCuFeNi,FCC+BCC,M,A,,6.8,495,,25,,,,,178,,,,,
45,10.1016/j.msea.2011.11.063,AlCrCuFeNi0.6,FCC+BCC,M,A,,6.6,496,,25,,,,,176,,,,,
45,10.1016/j.msea.2011.11.063,AlCrCuFeNi0.8,FCC+BCC,M,A,,6.7,486,,25,,,,,177,,,,,
45,10.1016/j.msea.2011.11.063,AlCrCuFeNi1.2,FCC+BCC,M,A,,6.8,407,,25,,,,,179,,,,,
45,10.1016/j.msea.2011.11.063,AlCrCuFeNi1.4,FCC+BCC,M,A,,6.9,367,,25,,,,,180,,,,,
45,10.1016/j.msea.2011.11.063,CoCrCuFeNi,FCC,S,,,8.3,286,C,25,230,888,51,,56,,,,,total elongation
46,10.1063/1.35872,Al0.2CrCuFeNi2,FCC,S,,,8,,,25,,,,,199,,,,,
46,10.1063/1.35872,Al0.4CrCuFeNi2,FCC,S,,,7.8,,,25,,,,,194,,,,,
46,10.1063/1.35872,Al0.6CrCuFeNi2,FCC,S,,,7.5,,,25,,,,,190,,,,,
46,10.1063/1.35872,Al0.8CrCuFeNi2,FCC,S,,,7.3,,,25,,,,,186,,,,,
46,10.1063/1.35872,Al1.2CrCuFeNi2,FCC+BCC,M,,,6.9,,,25,,,,,178,,,,,
46,10.1063/1.35872,AlCrCuFeNi2,FCC+BCC,M,,,7.1,,,25,,,,,182,,,,,
47,10.1016/j.jallcom.2011.02.108,AlCrCuFeNiTi,BCC+ BCC +Laves (C14),M,A,,6.3,,C,25,,1219,,,,,,,,
48,10.1016/j.apsusc.2015.07.207,Al1.125CuFe0.75NiTi1.125,FCC,S,AC,,5.9,516,C,25,980,1326,,7,,145,,,,plastic strain; also unrecorded high temperature data...
48,10.1016/j.apsusc.2015.07.207,Al22.5Cu20Fe15Ni20Ti22.5,FCC,S,AC,,5.9,516,C,25,980,1326,,7,,145,,,,
48,10.1016/j.apsusc.2015.07.207,AlCuFeNiTi,FCC,S,AC,,6.1,516,C,25,1074,1617,,8,,146,,,,
48,10.1016/j.apsusc.2015.07.207,AlCuNiTi,FCC,S,AC,,5.7,537,C,25,300,536,,0.85,,108,,,,
49,10.1007/s11837-015-1402-z,Al8Cu0.5Li0.5Mg0.5Zn0.5,FCC+Im,M,AC,,2.9,,C,25,488,879,17,,,,,,,total elongation I think
49,10.1007/s11837-015-1402-z,Al8Li0.5Mg0.5Sn0.5Zn0.5,FCC+Im,M,AC,,3,,C,25,415,836,16,,,,,,,
49,10.1007/s11837-015-1402-z,AlCu0.2Li0.5MgZn0.5,Im,M,AC,,2.7,,,25,,,,,,,,,,
49,10.1007/s11837-015-1402-z,AlCu0.5Li0.5MgSn0.2,Im,M,AC,,3,,,25,,,,,,,,,,
49,10.1007/s11837-015-1402-z,AlLi0.5MgSn0.2Zn0.5,FCC+Im,M,AC,,2.9,,C,25,546,546,,,,,,,,
49,10.1007/s11837-015-1402-z,AlLiMgSnZn,FCC+HCP+Im,M,AC,,3.9,,C,25,600,615,1,,,,,,,
50,10.1080/21663831.2014.985855,AlLiMg0.5ScTi1.5,FCC+HCP,M,,,2.7,591,,25,,,,,69,,,,,
52,10.1007/s11837-014-1066-0,Al0.3NbTa0.8Ti1.4V0.2Zr1.3,BCC,S,HIP+A,180,7.7,500,C,25,1965,2061,5,,110,,,,,I think this is total elongation
52,10.1007/s11837-014-1066-0,Al0.3NbTa0.8Ti1.4V0.2Zr1.3,BCC,S,HIP+A,180,7.8,,C,25,1965,2061,5,,,,,,,A5
52,10.1007/s11837-014-1066-0,Al0.3NbTa0.8Ti1.4V0.2Zr1.3,BCC,S,HIP+A,180,7.8,,C,800,678,693,>50,,,,,,,A5
52,10.1007/s11837-014-1066-0,Al0.3NbTa0.8Ti1.4V0.2Zr1.3,BCC,S,HIP+A,180,7.8,,C,1000,166,189,>50,,,,,,,A5
52,10.1007/s11837-014-1066-0,Al0.3NbTaTi1.4Zr1.3,BCC,S,HIP+A,200,8.1,490,C,25,1965,2054,5,,113,,,,,
52,10.1007/s11837-014-1066-0,Al0.3NbTaTi1.4Zr1.3,BCC,S,HIP+A,200,8.2,,C,25,1965,2054,5,,,,,,,A4
52,10.1007/s11837-014-1066-0,Al0.3NbTaTi1.4Zr1.3,BCC,S,HIP+A,200,8.2,,C,800,362,397,>50,,,,,,,A4
52,10.1007/s11837-014-1066-0,Al0.3NbTaTi1.4Zr1.3,BCC,S,HIP+A,200,8.2,,C,1000,236,247,>50,,,,,,,A4
52,10.1007/s11837-014-1066-0,Al0.4Hf0.6NbTaTiZr,BCC,S,HIP+A,140,9.1,500,C,25,1841,2269,10,,110,,,,,
52,10.1007/s11837-014-1066-0,Al0.4Hf0.6NbTaTiZr,BCC,S,HIP+A,140,9,,C,25,1841,2269,10,,,,,,,A3
52,10.1007/s11837-014-1066-0,Al0.4Hf0.6NbTaTiZr,BCC,S,HIP+A,140,9,,C,800,796,834,>50,,,,,,,A3
52,10.1007/s11837-014-1066-0,Al0.4Hf0.6NbTaTiZr,BCC,S,HIP+A,140,9,,C,1000,298,455,>50,,,,,,,A3
52,10.1007/s11837-014-1066-0,Al0.5NbTa0.8Ti1.5V0.2Zr,BCC,S,HIP+A,100,7.6,530,C,25,2035,2105,5,,111,,,,,
52,10.1007/s11837-014-1066-0,Al0.5NbTa0.8Ti1.5V0.2Zr,BCC,S,HIP+A,100,7.4,,C,25,2035,2105,4.5,,,,,,,A6
52,10.1007/s11837-014-1066-0,Al0.5NbTa0.8Ti1.5V0.2Zr,BCC,S,HIP+A,100,7.4,,C,800,796,851,>50,,,,,,,A6
52,10.1007/s11837-014-1066-0,Al0.5NbTa0.8Ti1.5V0.2Zr,BCC,S,HIP+A,100,7.4,,C,1000,220,225,>50,,,,,,,A6
52,10.1007/s11837-014-1066-0,AlMo0.5NbTa0.5TiZr,BCC+B2,M,HIP+A,75,7.1,591,C,25,2000,2368,10,,123,,,,,
52,10.1007/s11837-014-1066-0,AlMo0.5NbTa0.5TiZr,BCC+B2,M,HIP+A,75,7.4,,C,25,2000,2368,10,,,,,,,A1
52,10.1007/s11837-014-1066-0,AlMo0.5NbTa0.5TiZr,BCC+B2,M,HIP+A,75,7.4,,C,800,1597,1810,11,,,,,,,A1
52,10.1007/s11837-014-1066-0,AlMo0.5NbTa0.5TiZr,BCC+B2,M,HIP+A,75,7.4,,C,1000,745,772,>50,,,,,,,A1
52,10.1007/s11837-014-1066-0,AlMo0.5NbTa0.5TiZr,BCC+B2,M,HIP+A,75,7.4,,C,1200,250,,>50,,,,,,,A1
52,10.1007/s11837-014-1066-0,AlNb1.5Ta0.5Ti1.5Zr0.5,BCC,S,HIP+A,2000,6.8,408,C,25,1280,1367,4,,106,,,,,
52,10.1007/s11837-014-1066-0,AlNb1.5Ta0.5Ti1.5Zr0.5,BCC,S,HIP+A,2000,6.9,,C,25,1280,1367,3.5,,,,,,,A2
52,10.1007/s11837-014-1066-0,AlNb1.5Ta0.5Ti1.5Zr0.5,BCC,S,HIP+A,2000,6.9,,C,800,728,1000,>12,,,,,,,A2
52,10.1007/s11837-014-1066-0,AlNb1.5Ta0.5Ti1.5Zr0.5,BCC,S,HIP+A,2000,6.9,,C,1000,403,415,>50,,,,,,,A2
53,10.1016/j.jallcom.2014.11.064,Al0.3HfNbTaTiZr,BCC,S,AC,105,9.5,353,C,25,1188,,50,,,63,,,,total elongation
53,10.1016/j.jallcom.2014.11.064,Al0.5HfNbTaTiZr,BCC,S,AC,86,9.3,396,C,25,1302,,46,,,97,,,,
53,10.1016/j.jallcom.2014.11.064,Al0.75HfNbTaTiZr,BCC,S,AC,89,9.3,427,C,25,1415,2050,30,,,102,,,,
53,10.1016/j.jallcom.2014.11.064,AlHfNbTaTiZr,BCC+Im,M,AC,92,8.6,441,C,25,1489,1900,21,,,103,,,,
53,10.1016/j.jallcom.2014.11.064,HfNbTaTiZr,BCC,S,AC,120,9.7,295,C,25,1073,,50,,,55,,,,
54,10.3390/e16020870,Al0.25MoNbTiV,BCC,S,AC,,7.1,460,C,25,1250,1500,13,,164,,,,,total elongation
54,10.3390/e16020870,Al0.5MoNbTiV,BCC,S,AC,,6.8,487,C,25,1625,1800,11,,158,,,,,
54,10.3390/e16020870,Al0.75MoNbTiV,BCC,S,AC,,6.6,517,C,25,1260,1300,8,,154,,,,,
54,10.3390/e16020870,AlMoNbTiV,BCC,S,AC,,6.4,537,C,25,1375,1400,3,,150,,,,,
54,10.3390/e16020870,MoNbTiV,BCC,S,AC,,7.3,441,C,25,1200,2050,26,,170,,,,,
55,10.1016/j.proeng.2012.03.043,Al0.25NbTaTiV,BCC,S,AC,,8.8,,C,25,1330,,,,92,,,,,
55,10.1016/j.proeng.2012.03.043,Al0.5NbTaTiV,BCC,S,AC,,8.5,,C,25,1014,,,,97,,,,,
55,10.1016/j.proeng.2012.03.043,AlNbTaTiV,BCC,S,AC,,7.9,,C,25,993,,,,101,,,,,
55,10.1016/j.proeng.2012.03.043,NbTaTiV,BCC,S,AC,,9.2,,C,25,1092,,,,106,,,,,
56,10.1016/j.matlet.2014.11.162,AlNbTiV,BCC,S,A,300-400,5.5,448,C,25,1020,1318,,5,105,,,,,plastic elongation
56,10.1016/j.matlet.2014.11.162,AlNbTiV,BCC,S,A,,5.6,,C,25,1020,,,5,,,,,,
56,10.1016/j.matlet.2014.11.162,AlNbTiV,BCC,S,A,,5.6,,C,600,810,1050,,12,,,,,,
56,10.1016/j.matlet.2014.11.162,AlNbTiV,BCC,S,A,,5.6,,C,800,685,,,50,,,,,,
56,10.1016/j.matlet.2014.11.162,AlNbTiV,BCC,S,A,,5.6,,C,1000,158,,,50,,,,,,
58,10.1016/j.msea.2011.09.033,CrMo0.5NbTa0.5TiZr,BCC+BCC+Laves (C15),M,HIP+A,,8,540,C,25,1595,2046,5,,,,,,,total elongation
58,10.1016/j.msea.2011.09.033,CrMo0.5NbTa0.5TiZr,BCC+BCC+Laves (C15),M,HIP+A,,8.2,,C,25,1595,2046,5,,,,,,,
58,10.1016/j.msea.2011.09.033,CrMo0.5NbTa0.5TiZr,BCC+BCC+Laves (C15),M,HIP+A,,8.2,,C,800,983,1100,5.5,,,,,,,
58,10.1016/j.msea.2011.09.033,CrMo0.5NbTa0.5TiZr,BCC+BCC+Laves (C15),M,HIP+A,,8.2,,C,1000,546,630,50,,,,,,,
58,10.1016/j.msea.2011.09.033,CrMo0.5NbTa0.5TiZr,BCC+BCC+Laves (C15),M,HIP+A,,8.2,,C,1200,170,190,50,,,,,,,
59,10.1016/j.msea.2012.12.018,CrNbTiVZr,BCC+laves,M,HIP+A,,6.6,482,C,25,1298,,3,,,,,,,total elongation
59,10.1016/j.msea.2012.12.018,CrNbTiVZr,BCC+laves,M,HIP+A,,6.6,,C,25,1298,,3,,,,,,,
59,10.1016/j.msea.2012.12.018,CrNbTiVZr,BCC+laves,M,HIP+A,,6.6,,C,600,1230,,10,,,,,,,
59,10.1016/j.msea.2012.12.018,CrNbTiVZr,BCC+laves,M,HIP+A,,6.6,,C,800,615,,>50,,,,,,,
59,10.1016/j.msea.2012.12.018,CrNbTiVZr,BCC+laves,M,HIP+A,,6.6,,C,1000,259,,>50,,,,,,,
59,10.1016/j.msea.2012.12.018,CrNbTiZr,BCC+laves,M,HIP+A,,6.6,418,C,25,1260,,6,,,,,,,
59,10.1016/j.msea.2012.12.018,CrNbTiZr,BCC+laves,M,HIP+A,,6.7,,C,25,1260,,6,,,,,,,
59,10.1016/j.msea.2012.12.018,CrNbTiZr,BCC+laves,M,HIP+A,,6.7,,C,600,1035,,>50,,,,,,,
59,10.1016/j.msea.2012.12.018,CrNbTiZr,BCC+laves,M,HIP+A,,6.7,,C,800,300,,>50,,,,,,,
59,10.1016/j.msea.2012.12.018,CrNbTiZr,BCC+laves,M,HIP+A,,6.7,,C,1000,115,,>50,,,,,,,
59,10.1016/j.msea.2012.12.018,NbTiV2Zr,BCC,S,HIP+A,500-600,6.4,304,C,25,918,,> 50,,109,,,,,
59,10.1016/j.msea.2012.12.018,NbTiV2Zr,BCC,S,HIP+A,,6.3,,C,25,918,,50,,,,,,,
59,10.1016/j.msea.2012.12.018,NbTiV2Zr,BCC,S,HIP+A,,6.3,,C,600,571,,50,,,,,,,
59,10.1016/j.msea.2012.12.018,NbTiV2Zr,BCC,S,HIP+A,,6.3,,C,800,240,,50,,,,,,,
59,10.1016/j.msea.2012.12.018,NbTiV2Zr,BCC,S,HIP+A,,6.3,,C,1000,72,,50,,,,,,,
59,10.1016/j.msea.2012.12.018,NbTiVZr,BCC,S,HIP+A,500-600,6.5,335,C,25,1105,,> 50,,104,,,,,
59,10.1016/j.msea.2012.12.018,NbTiVZr,BCC,S,HIP+A,,6.5,,C,25,1105,,50,,,,,,,
59,10.1016/j.msea.2012.12.018,NbTiVZr,BCC,S,HIP+A,,6.5,,C,600,834,,50,,,,,,,
59,10.1016/j.msea.2012.12.018,NbTiVZr,BCC,S,HIP+A,,6.5,,C,800,187,,50,,,,,,,
59,10.1016/j.msea.2012.12.018,NbTiVZr,BCC,S,HIP+A,,6.5,,C,1000,58,,50,,,,,,,
61,10.1016/j.intermet.2015.09.011,Hf0.5Mo0.5NbTiZr,BCC,S,AC,,7.9,,C,25,1176,1538,,,123.1,,,,,
61,10.1016/j.intermet.2015.09.011,Hf0.5Mo0.5NbTiZrC0.1,BCC+HfC,M,AC,,7.8,,C,25,1183,2139,38,,,,,,,total elongation
61,10.1016/j.intermet.2015.09.011,Hf0.5Mo0.5NbTiZrC0.3,BCC+HfC,M,AC,,7.7,,C,25,1201,1965,33,,,,,,,
62,10.1016/j. matlet.2016.03.133,HfMo0.25NbTaTiZr,BCC,S,AC,,9.9,395,C,25,1112,,50,,,96,,,,total elongation
62,10.1016/j. matlet.2016.03.133,HfMo0.5NbTaTiZr,BCC,S,AC,,10,480,C,25,1317,,50,,,102,,,,
62,10.1016/j. matlet.2016.03.133,HfMo0.75NbTaTiZr,BCC,S,AC,,10,492,C,25,1373,,50,,,109,,,,
62,10.1016/j. matlet.2016.03.133,HfMoNbTaTiZr,BCC,S,AC,,10,505,C,25,1512,1800,12,,,115,,,,
62,10.1016/j. matlet.2016.03.133,HfNbTaTiZr,BCC,S,AC,,9.9,335,C,25,1015,,50,,,85,,,,
63,10.1016/j.intermet.2015.03.013,HfMoNbTaTiZr,BCC,S,AC,,10,505,C,25,1512,,12,,147,,,,,total elongation
63,10.1016/j.intermet.2015.03.013,HfMoNbTaTiZr,BCC,S,AC,,10,,C,800,1007,,23,,,,,,,
63,10.1016/j.intermet.2015.03.013,HfMoNbTaTiZr,BCC,S,AC,,10,,C,1000,814,,30,,,,,,,
63,10.1016/j.intermet.2015.03.013,HfMoNbTaTiZr,BCC,S,AC,,10,,C,1200,556,,30,,,,,,,
63,10.1016/j.intermet.2015.03.013,HfMoTaTiZr,BCC,S,AC,,10.2,542,C,25,1600,1743,4,,155,,,,,
63,10.1016/j.intermet.2015.03.013,HfMoTaTiZr,BCC,S,AC,,10.2,,C,800,1045,1446,19,,,,,,,
63,10.1016/j.intermet.2015.03.013,HfMoTaTiZr,BCC,S,AC,,10.2,,C,1000,855,,30,,,,,,,
63,10.1016/j.intermet.2015.03.013,HfMoTaTiZr,BCC,S,AC,,10.2,,C,1200,404,,30,,,,,,,
64,10.1016/j.matdes.2015.05.019,HfMoNbTiZr,BCC,S,A,,8.7,,C,25,1575,1640,9,,,,,,,total elongation
64,10.1016/j.matdes.2015.05.019,HfMoNbTiZr,BCC,S,A,,8.7,,C,800,825,1095,50,,,,,,,
64,10.1016/j.matdes.2015.05.019,HfMoNbTiZr,BCC,S,A,,8.7,,C,1000,635,654,50,,,,,,,
64,10.1016/j.matdes.2015.05.019,HfMoNbTiZr,BCC,S,A,,8.7,,C,1200,187,194,50,,,,,,,
64,10.1016/j.matdes.2015.05.019,HfMoNbZrTi,BCC,S,AC,,8.7,,C,25,1803,1719,10,,139,,,,,
65,10.1016/j.matlet.2016.03.092,HfNbSi0.5TiV,BCC+silicide,M,AC,,8.6,,C,800,875,,50,,,,,,,cold crucible lev melting
65,10.1016/j.matlet.2016.03.092,HfNbSi0.5TiV,BCC+silicide,M,AC,,8.6,,C,1000,240,,50,,,,,,,cold crucible lev melting
65,10.1016/j.matlet.2016.03.092,HfNbSi0.5TiV,BCC+silicide,M,AC,,8.6,490,C,25,1399,1608,11,,,,,,,cold crucible leviation melting = AC
68,10.1063/1.49667,Hf0.5Nb0.5Ta0.5Ti1.5Zr,BCC,S,AC,,8.1,301,T,25,903,990,19,,107,,,,,total elongation
69,10.1007/s10853-012-6260-2,HfNbTaTiZr,BCC,S,HIP+A,,9.9,,C,25,929,,50,,,,,,,
69,10.1007/s10853-012-6260-2,HfNbTaTiZr,BCC,S,HIP+A,,9.9,,C,400,790,,50,,,,,,,
69,10.1007/s10853-012-6260-2,HfNbTaTiZr,BCC,S,HIP+A,,9.9,,C,600,675,,50,,,,,,,
69,10.1007/s10853-012-6260-2,HfNbTaTiZr,BCC,S,HIP+A,,9.9,,C,800,535,,50,,,,,,,
69,10.1007/s10853-012-6260-2,HfNbTaTiZr,BCC,S,HIP+A,,9.9,,C,1000,295,,50,,,,,,,
69,10.1007/s10853-012-6260-2,HfNbTaTiZr,BCC,S,HIP+A,,9.9,,C,1200,92,,50,,,,,,,
71,10.1016/j.matlet.2014.05.134,HfNbTiZr,BCC,S,AC,,8.4,,T,25,879,969,,14.9,92,,,,,plastic strain
72,10.3390/e18050189,MoNbTaV,BCC,S,A,200,10.7,504,C,25,1525,2400,21,,187,,,,,total elongation
73,10.1016/j.intermet.2011.01.004,MoNbTaVW,BCC,S,AC,80,12.4,536,C,25,1246,1270,2,,232,,,,,total elongation
73,10.1016/j.intermet.2011.01.004,MoNbTaVW,BCC,S,AC,,12.4,,C,600,862,,13,,,,,,,
73,10.1016/j.intermet.2011.01.004,MoNbTaVW,BCC,S,AC,,12.4,,C,800,846,,17,,,,,,,
73,10.1016/j.intermet.2011.01.004,MoNbTaVW,BCC,S,AC,,12.4,,C,1000,842,,19,,,,,,,
73,10.1016/j.intermet.2011.01.004,MoNbTaVW,BCC,S,AC,,12.4,,C,1200,735,,7.5,,,,,,,
73,10.1016/j.intermet.2011.01.004,MoNbTaVW,BCC,S,AC,,12.4,,C,1400,656,,40,,,,,,,
73,10.1016/j.intermet.2011.01.004,MoNbTaVW,BCC,S,AC,,12.4,,C,1600,477,,40,,,,,,,
73,10.1016/j.intermet.2011.01.004,MoNbTaW,BCC,S,AC,200,13.7,454,C,25,1058,1211,2,,258,,,,,
73,10.1016/j.intermet.2011.01.004,MoNbTaW,BCC,S,AC,,13.8,,C,600,561,,40,,,,,,,
73,10.1016/j.intermet.2011.01.004,MoNbTaW,BCC,S,AC,,13.8,,C,800,552,,40,,,,,,,
73,10.1016/j.intermet.2011.01.004,MoNbTaW,BCC,S,AC,,13.8,,C,1000,548,,40,,,,,,,
73,10.1016/j.intermet.2011.01.004,MoNbTaW,BCC,S,AC,,13.8,,C,1200,506,,40,,,,,,,
73,10.1016/j.intermet.2011.01.004,MoNbTaW,BCC,S,AC,,13.8,,C,1400,421,,40,,,,,,,
73,10.1016/j.intermet.2011.01.004,MoNbTaW,BCC,S,AC,,13.8,,C,1600,405,,40,,,,,,,
74,10.1016/j.matdes.2015.06.072,Mo0.3NbTiVZr,BCC,S,A,,6.7,,C,25,1289,,,42,,,,,,not obvious which are annealed vs. as-cast; plastic strain
74,10.1016/j.matdes.2015.06.072,Mo0.5NbTiVZr,BCC,S,A,,6.8,,C,25,1473,,,32,,,,,,
74,10.1016/j.matdes.2015.06.072,Mo0.7NbTiVZr,BCC,S,A,,7,,C,25,1706,,,32,,,,,,
74,10.1016/j.matdes.2015.06.072,Mo1.3NbTiVZr,BCC,S,A,,7.3,,C,25,1496,,,30,,,,,,
74,10.1016/j.matdes.2015.06.072,Mo1.5NbTiVZr,BCC,S,A,,7.4,,C,25,1603,,,20,,,,,,
74,10.1016/j.matdes.2015.06.072,Mo1.7NbTiVZr,BCC,S,A,,7.5,,C,25,1645,,,15,,,,,,
74,10.1016/j.matdes.2015.06.072,Mo2NbTiVZr,BCC,S,A,,7.6,,C,25,1765,,,12,,,,,,
74,10.1016/j.matdes.2015.06.072,MoNbTiVZr,BCC,S,A,,7.1,,C,25,1779,,,32,,,,,,
74,10.1016/j.matdes.2015.06.072,NbTiV0.3MoZr,BCC,S,A,,7.3,,C,25,1455,,,25,,,,,,
74,10.1016/j.matdes.2015.06.072,NbTiV0.3Mo0.1Zr,BCC,S,A,,6.6,,C,25,932,,,45,,,,,,
74,10.1016/j.matdes.2015.06.072,NbTiV0.3Mo0.3Zr,BCC,S,A,,6.8,,C,25,1312,,,50,,,,,,
74,10.1016/j.matdes.2015.06.072,NbTiV0.3Mo0.5Zr,BCC,S,A,,6.9,,C,25,1301,,,43,,,,,,
74,10.1016/j.matdes.2015.06.072,NbTiV0.3Mo0.7Zr,BCC,S,A,,7.1,,C,25,1436,,,27,,,,,,
74,10.1016/j.matdes.2015.06.072,NbTiV0.3Mo1.3Zr,BCC,S,A,,7.4,,C,25,1603,,,20,,,,,,
74,10.1016/j.matdes.2015.06.072,NbTiV0.3Mo1.5Zr,BCC,S,A,,7.5,,C,25,1576,,,8,,,,,,
74,10.1016/j.matdes.2015.06.072,NbTiV0.3Zr,BCC,S,A,,6.5,,C,25,866,,,45,,,,,,
74,10.1016/j.matdes.2015.06.072,NbTiVZr,BCC,S,A,,6.5,,C,25,1104,,,50,,,,,,
75,10.1007/s11837-012-0366-5,MoNbTiV0.25Zr,BCC,S,AC,,7.3,,C,25,1776,3893,30,,153,,,,,bridgeman solidfication
75,10.1007/s11837-012-0366-5,MoNbTiV0.50Zr,BCC,S,AC,,7.2,,C,25,1647,3307,28,,152,,,,,bridgeman solidfication
75,10.1007/s11837-012-0366-5,MoNbTiV0.75Zr,BCC,S,AC,,7.2,,C,25,1708,3929,29,,150,,,,,bridgeman solidfication
75,10.1007/s11837-012-0366-5,MoNbTiV1.0Zr,BCC,S,AC,,7.1,,C,25,1786,3828,26,,149,,,,,bridgeman solidfication
75,10.1007/s11837-012-0366-5,MoNbTiV1.5Zr,BCC,S,AC,,7.1,,C,25,1735,3300,20,,147,,,,,bridgeman solidfication
75,10.1007/s11837-012-0366-5,MoNbTiV2.0Zr,BCC,S,AC,,7,,C,25,1538,3176,23,,146,,,,,bridgeman solidfication
75,10.1007/s11837-012-0366-5,MoNbTiV3.0Zr,BCC,S,AC,,6.9,,C,25,1418,2508,24,,143,,,,,bridgeman solidfication
75,10.1007/s11837-012-0366-5,MoNbTiZr,BCC,S,AC,,7.3,,C,25,1592,3450,34,,155,,,,,bridgeman solidfication
77,10.1016/j.jallcom.2015.07.185,CoFeMo0.2NiV,FCC+Im,M,AC,,8,267,,25,,,,,,,,,,
77,10.1016/j.jallcom.2015.07.185,CoFeMo0.4NiV,FCC+Im,M,AC,,8.1,402,,25,,,,,,,,,,
77,10.1016/j.jallcom.2015.07.185,CoFeMo0.6NiV,FCC+Im,M,AC,,8.2,557,,25,,,,,,,,,,
77,10.1016/j.jallcom.2015.07.185,CoFeMo0.8NiV,FCC+Im,M,AC,,8.3,606,,25,,,,,,,,,,
77,10.1016/j.jallcom.2015.07.185,CoFeMoNi1.2V,FCC+Im,M,AC,,8.4,602,,25,,,,,,,,,,
77,10.1016/j.jallcom.2015.07.185,CoFeMoNi1.4V,FCC+Im,M,AC,,8.5,538,,25,,,,,,,,,,
77,10.1016/j.jallcom.2015.07.185,CoFeMoNi1.6V,FCC+Im,M,AC,,8.5,520,,25,,,,,,,,,,
77,10.1016/j.jallcom.2015.07.185,CoFeMoNi1.8V,FCC+Im,M,AC,,8.5,510,,25,,,,,,,,,,
77,10.1016/j.jallcom.2015.07.185,CoFeMoNi2V,FCC+Im,M,AC,,8.5,382,,25,,,,,,,,,,
77,10.1016/j.jallcom.2015.07.185,CoFeMoNiV,FCC+Im,M,AC,,8.4,625,,25,,,,,,,,,,
77,10.1016/j.jallcom.2015.07.185,CoFeNiV,FCC,S,AC,,7.8,238,,25,,,,,187,,,,,
78,10.1016/j.msea.2006.11.049,Al11.1(CoCrCuFeMnNiTiV)88.9,FCC+BCC,M,AC,,6.7,,C,25,1862,2431,< 1,,,164,,,,
78,10.1016/j.msea.2006.11.049,Al20(CoCrCuFeMnNiTiV)80,BCC,S,AC,,6.1,,C,25,1465,2016,2,,,190,,,,
78,10.1016/j.msea.2006.11.049,Al40(CoCrCuFeMnNiTiV)60,BCC+Al3Ti,M,AC,,5.1,,C,25,1461,1461,< 1,,,163,,,,
78,10.1016/j.msea.2006.11.049,CoCrCuFeMnNiTiV,FCC+BCC+omega,M,AC,,7.3,,C,25,1312,1312,< 1,,,74,,,,
79,10.1016/j.jallcom.2015.07.285,(CuMnNi)75Zn25,FCC,S,AC,,8.3,147,C,25,215,,>60,,169,,,,,
79,10.1016/j.jallcom.2015.07.285,(CuMnNi)80Zn20,FCC,S,AC,,8.3,109,C,25,140,,>65,,171,,,,,
79,10.1016/j.jallcom.2015.07.285,(CuMnNi)90Al10,FCC+Im,M,AC,,8.1,241,C,25,515,,40,,,,,,,
79,10.1016/j.jallcom.2015.07.285,(CuMnNi)90Sn10,FCC+heusler,M,AC,,8.3,318,C,25,630,,20,,,,,,,
79,10.1016/j.jallcom.2015.07.285,(CuMnNi)95Al5,FCC,S,AC,,8.3,166,C,25,330,,>45,,174,,,,,
79,10.1016/j.jallcom.2015.07.285,(CuMnNi)95Sn5,FCC+heusler,M,AC,,8.4,205,C,25,380,,>63,,,,,,,
80,10.1007/s11661-005-0218-9,Al0.5CoCrCuFeNi,FCC,S,AC,,7.9,,C,1000,150,,,,,,,,,
80,10.1007/s11661-005-0218-9,Al0.5CoCrCuFeNi,FCC,S,AC,,7.9,,C,25,388,,,,,,,,,
80,10.1007/s11661-005-0218-9,Al0.5CoCrCuFeNi,FCC,S,AC,,7.9,,C,300,411,,,,,,,,,
80,10.1007/s11661-005-0218-9,Al0.5CoCrCuFeNi,FCC,S,AC,,7.9,,C,500,421,,,,,,,,,
80,10.1007/s11661-005-0218-9,Al0.5CoCrCuFeNi,FCC,S,AC,,7.9,,C,700,426,,,,,,,,,
80,10.1007/s11661-005-0218-9,Al0.5CoCrCuFeNi,FCC,S,AC,,7.9,,C,900,230,,,,,,,,,
80,10.1007/s11661-005-0218-9,Al0.5CoCrCuFeNi,FCC,S,AC,,7.9,,C,1100,80,,,,,,,,,
80,10.1007/s11661-005-0218-9,Al2CoCrCuFeNi,BCC,S,AC,,6.7,,C,1000,116,,,,,,,,,
80,10.1007/s11661-005-0218-9,Al2CoCrCuFeNi,BCC,S,AC,,6.7,,C,1100,79,,,,,,,,,
80,10.1007/s11661-005-0218-9,Al2CoCrCuFeNi,BCC,S,AC,,6.7,,C,25,1620,,,,,,,,,
80,10.1007/s11661-005-0218-9,Al2CoCrCuFeNi,BCC,S,AC,,6.7,,C,600,805,,,,,,,,,
80,10.1007/s11661-005-0218-9,Al2CoCrCuFeNi,BCC,S,AC,,6.7,,C,500,1120,,,,,,,,,
80,10.1007/s11661-005-0218-9,Al2CoCrCuFeNi,BCC,S,AC,,6.7,,C,700,567,,,,,,,,,
80,10.1007/s11661-005-0218-9,Al2CoCrCuFeNi,BCC,S,AC,,6.7,,C,900,214,,,,,,,,,
80,10.1007/s11661-005-0218-9,Al2CoCrCuFeNi,BCC,S,AC,,6.7,,C,800,302,,,,,,,,,
80,10.1007/s11661-005-0218-9,AlCoCrCuFeNi,FCC+BCC,M,AC,,7.4,,C,1000,47,,,,,,,,,
80,10.1007/s11661-005-0218-9,AlCoCrCuFeNi,FCC+BCC,M,AC,,7.4,,C,25,948,,,,,,,,,
80,10.1007/s11661-005-0218-9,AlCoCrCuFeNi,FCC+BCC,M,AC,,7.4,,C,600,561,,,,,,,,,
80,10.1007/s11661-005-0218-9,AlCoCrCuFeNi,FCC+BCC,M,AC,,7.4,,C,700,307,,,,,,,,,
80,10.1007/s11661-005-0218-9,AlCoCrCuFeNi,FCC+BCC,M,AC,,7.4,,C,800,172,,,,,,,,,
80,10.1007/s11661-005-0218-9,AlCoCrCuFeNi,FCC+BCC,M,AC,,7.4,,C,900,98,,,,,,,,,
81,10.1016/j.jallcom.2015.11.050,AlCrMoNbTi,BCC,S,AC,,6.6,,C,25,,,,,,,92,undetectable,,
81,10.1016/j.jallcom.2015.11.050,AlCrMoNbTi,BCC,S,AC,,6.6,,C,400,1080,1100,0.02,,,,92,undetectable,,
81,10.1016/j.jallcom.2015.11.050,AlCrMoNbTi,BCC,S,AC,,6.6,,C,600,1060,1170,0.025,,,,92,undetectable,,
81,10.1016/j.jallcom.2015.11.050,AlCrMoNbTi,BCC,S,AC,,6.6,,C,800,860,1000,0.02,,,,92,undetectable,,
81,10.1016/j.jallcom.2015.11.050,AlCrMoNbTi,BCC,S,AC,,6.6,,C,1000,594,630,0.15,,,,92,undetectable,,
81,10.1016/j.jallcom.2015.11.050,AlCrMoNbTi,BCC,S,AC,,6.6,,C,1200,105,116,0.24,,,,92,undetectable,,
[...]
Couzinie_14,10.1016/j.msea.2017.08.019,AlNbTiVZr,B2+Al3Zr5+Laves,M,A,,5.7,,C,800,550,600,,,,,,,,
Couzinie_14,10.1016/j.msea.2017.08.019,AlNbTiVZr,B2+Al3Zr5+Laves,M,A,,5.7,,C,25,1500,1675,,,,,,,,
Couzinie_14,10.1016/j.msea.2017.08.019,AlNbTiVZr0.1,B2+Al3Zr5,M,A,,5.5,,C,600,975,1085,,,,,,,,
Couzinie_14,10.1016/j.msea.2017.08.019,AlNbTiVZr0.1,B2+Al3Zr5,M,A,,5.5,,C,800,865,920,,,,,,,,
Couzinie_14,10.1016/j.msea.2017.08.019,AlNbTiVZr0.1,B2+Al3Zr5,M,A,,5.5,,C,25,1290,1395,,,,,,,,
Couzinie_14,10.1016/j.msea.2017.08.019,AlNbTiVZr0.25,B2+Al3Zr5,M,A,,5.6,,C,600,1065,1260,,,,,,,,
Couzinie_14,10.1016/j.msea.2017.08.019,AlNbTiVZr0.25,B2+Al3Zr5,M,A,,5.6,,C,800,855,865,,,,,,,,
Couzinie_14,10.1016/j.msea.2017.08.019,AlNbTiVZr0.25,B2+Al3Zr5,M,A,,5.6,,C,25,1360,1480,,,,,,,,
Couzinie_14,10.1016/j.msea.2017.08.019,AlNbTiVZr0.5,B2+Al3Zr5+Laves,M,A,,5.6,,C,600,1135,1425,,,,,,,,
Couzinie_14,10.1016/j.msea.2017.08.019,AlNbTiVZr0.5,B2+Al3Zr5+Laves,M,A,,5.6,,C,800,675,740,,,,,,,,
Couzinie_14,10.1016/j.msea.2017.08.019,AlNbTiVZr0.5,B2+Al3Zr5+Laves,M,A,,5.6,,C,25,1485,,,,,,,,,
Couzinie_14,10.1016/j.msea.2017.08.019,AlNbTiVZr1.5,B2+Al3Zr5+Laves,M,A,,5.8,,C,600,1195,1195,,,,,,,,
Couzinie_14,10.1016/j.msea.2017.08.019,AlNbTiVZr1.5,B2+Al3Zr5+Laves,M,A,,5.8,,C,800,180,395,,,,,,,,
Couzinie_14,10.1016/j.msea.2017.08.019,AlNbTiVZr1.5,B2+Al3Zr5+Laves,M,A,,5.8,,C,25,1535,1550,,,,,,,,
Couzinie_16,10.1007/s11665-017-2799-z,CoCrMoNb,BCC+Laves,M,AC,,8.8,,C,25,,1419.6,,,,,,,,
Couzinie_16,10.1007/s11665-017-2799-z,CoCrMoNbTi,BCC+Laves,M,AC,,7.8,,C,25,,1096.8,,,,,,,,
Couzinie_16,10.1007/s11665-017-2799-z,CoCrMoNbTi0.2,BCC+Laves,M,AC,,8.5,,C,25,,1905.6,,,,,,,,
Couzinie_16,10.1007/s11665-017-2799-z,CoCrMoNbTi0.4,BCC,S,AC,,8.3,,C,25,,1771.3,,,220.1,,,,,
Couzinie_16,10.1007/s11665-017-2799-z,CoCrMoNbTi0.5,BCC+Laves,M,AC,,8.2,,C,25,,1609.2,,,,,,,,
Couzinie_17,10.1016/j.ijrmhm.2014.07.009,CrHfNbTiZr,BCC+Laves,M,A,,8.2,,C,25,1457,1908,,,,,,,,
Couzinie_17,10.1016/j.ijrmhm.2014.07.009,CrHfNbTiZr,BCC+Laves,M,A,,8.2,,C,25,1420,1885,4.2,,,,,,,
Couzinie_17,10.1016/j.ijrmhm.2014.07.009,CrHfNbTiZr,BCC+Laves,M,A,,8.2,,C,25,1328,1884,,,,,,,,
Couzinie_17,10.1016/j.ijrmhm.2014.07.009,CrHfNbTiZr,BCC+Laves,M,A,,8.2,,C,25,1322,1726,,,,,,,,
Couzinie_17,10.1016/j.ijrmhm.2014.07.009,CrHfNbTiZr,BCC+Laves,M,AC,,8.2,,C,25,1375,2130,3,,,,,,,
Couzinie_17,10.1016/j.ijrmhm.2014.07.009,HfNbTiVZr,BCC+Laves,M,A,,8,,C,25,1157,1468,,,,,,,,
Couzinie_17,10.1016/j.ijrmhm.2014.07.009,HfNbTiVZr,BCC,S,A,,8,,C,25,1253,1393,,,99,,,,,
Couzinie_17,10.1016/j.ijrmhm.2014.07.009,HfNbTiVZr,BCC,S,A,,8,,C,25,1140,1463,,,99,,,,,
Couzinie_17,10.1016/j.ijrmhm.2014.07.009,HfNbTiVZr,BCC,S,A,,8,,C,25,1120,1376,30,,99,,,,,
Couzinie_17,10.1016/j.ijrmhm.2014.07.009,HfNbTiVZr,BCC+Laves,M,AC,,8,,C,25,1170,1463,29.6,,,,,,,
Couzinie_20,10.1016/j.matchemphys.2017.06.054,CrTaTi0.17VW,BCC+Laves,M,SPS,,12.5,715,C,25,2034,,1-2,,,,,,,"Jasper: Added HV values from Fig 5, corrected alloy formula to reflect what is stated in the article"
Couzinie_20,10.1016/j.matchemphys.2017.06.054,CrTaTi0.17VW,BCC+Laves,M,SPS,,12.5,,C,1200,750,,1-2,,,,,,,
Couzinie_20,10.1016/j.matchemphys.2017.06.054,CrTaTi0.3VW,BCC+Laves,M,SPS,,12.2,780,C,25,2050,,1-2,,,,,,,
Couzinie_20,10.1016/j.matchemphys.2017.06.054,CrTaTi0.3VW,BCC+Laves,M,SPS,,12.2,,C,1200,586,,1-2,,,,,,,
Couzinie_20,10.1016/j.matchemphys.2017.06.054,CrTaVW,BCC+Laves,M,SPS,,12.9,715,C,25,2327,,1-2,,,,,,,
Couzinie_20,10.1016/j.matchemphys.2017.06.054,CrTaVW,BCC+Laves,M,SPS,,12.9,,C,1200,979,,1-2,,,,,,,
Couzinie_21,10.1080/14786435.2015.1028506,Hf0.4Nb1.54Ta1.54Ti0.89Zr0.64,BCC,S,AC,,10.4,,C,60,795,,,,125,,,,,
Couzinie_21,10.1080/14786435.2015.1028506,Hf0.4Nb1.54Ta1.54Ti0.89Zr0.64,BCC,S,AC,,10.4,,C,100,765,,,,,,,,,
Couzinie_21,10.1080/14786435.2015.1028506,Hf0.4Nb1.54Ta1.54Ti0.89Zr0.64,BCC,S,AC,,10.4,,C,200,650,,,,,,,,,
Couzinie_21,10.1080/14786435.2015.1028506,Hf0.4Nb1.54Ta1.54Ti0.89Zr0.64,BCC,S,AC,,10.4,,C,300,590,,,,,,,,,
Couzinie_21,10.1080/14786435.2015.1028506,Hf0.4Nb1.54Ta1.54Ti0.89Zr0.64,BCC,S,AC,,10.4,,C,25,845,,,,,,,,,
Couzinie_22,10.1016/j.jallcom.2015.11.091,Hf0.5Mo0.5NbSi0.1TiZr,BCC+laves,M,AC,,7.7,442,C,25,1350,2150,,28,,,,,,
Couzinie_22,10.1016/j.jallcom.2015.11.091,Hf0.5Mo0.5NbSi0.3TiZr,BCC+laves,M,AC,,7.5,494,C,25,1370,1950,,23,,,,,,
Couzinie_22,10.1016/j.jallcom.2015.11.091,Hf0.5Mo0.5NbSi0.5TiZr,BCC+laves,M,AC,,7.2,524,C,25,1600,1900,,23,,,,,,
Couzinie_22,10.1016/j.jallcom.2015.11.091,Hf0.5Mo0.5NbSi0.7TiZr,BCC+laves,M,AC,,7,580,C,25,1550,1900,,12,,,,,,
Couzinie_22,10.1016/j.jallcom.2015.11.091,Hf0.5Mo0.5NbSi0.9TiZr,BCC+laves,M,AC,,6.8,640,C,25,1650,2000,,9,,,,,,
Couzinie_22,10.1016/j.jallcom.2015.11.091,Hf0.5Mo0.5NbTiZr,BCC+laves,S,AC,,7.9,400,C,25,1150,1500,,25,123.1,,,,,
Couzinie_24,10.1016/j.msea.2017.10.073,Hf0.75NbTa0.5Ti1.5Zr1.25,BCC,S,CR,,8.4,,C,-268.8,2250,,,,103.1,,,,,
Couzinie_24,10.1016/j.msea.2017.10.073,Hf0.75NbTa0.5Ti1.5Zr1.25,BCC,S,CR,,8.4,,C,-268.8,2210,,,,103.1,,,,,
Couzinie_24,10.1016/j.msea.2017.10.073,Hf0.75NbTa0.5Ti1.5Zr1.25,BCC,S,CR,,8.4,,C,-196,1880,,,,,,,,,
Couzinie_24,10.1016/j.msea.2017.10.073,Hf0.75NbTa0.5Ti1.5Zr1.25,BCC,S,CR,,8.4,,C,-196,1750,,,,,,,,,
Couzinie_24,10.1016/j.msea.2017.10.073,Hf0.75NbTa0.5Ti1.5Zr1.25,BCC,S,CR,,8.4,,C,-153,1640,,,,,,,,,
Couzinie_24,10.1016/j.msea.2017.10.073,Hf0.75NbTa0.5Ti1.5Zr1.25,BCC,S,CR,,8.4,,C,-153,1550,,,,,,,,,
Couzinie_24,10.1016/j.msea.2017.10.073,Hf0.75NbTa0.5Ti1.5Zr1.25,BCC,S,CR,,8.4,,C,-103,1380,,,,,,,,,
Couzinie_24,10.1016/j.msea.2017.10.073,Hf0.75NbTa0.5Ti1.5Zr1.25,BCC,S,CR,,8.4,,C,-103,1370,,,,,,,,,
Couzinie_24,10.1016/j.msea.2017.10.073,Hf0.75NbTa0.5Ti1.5Zr1.25,BCC,S,CR,,8.4,,C,-43,1200,,,,,,,,,
Couzinie_24,10.1016/j.msea.2017.10.073,Hf0.75NbTa0.5Ti1.5Zr1.25,BCC,S,CR,,8.4,,C,-43,1180,,,,,,,,,
Couzinie_24,10.1016/j.msea.2017.10.073,Hf0.75NbTa0.5Ti1.5Zr1.25,BCC,S,CR,,8.4,,C,72,1040,,,,,,,,,
Couzinie_24,10.1016/j.msea.2017.10.073,Hf0.75NbTa0.5Ti1.5Zr1.25,BCC,S,CR,,8.4,,C,72,1020,,,,,,,,,
Couzinie_24,10.1016/j.msea.2017.10.073,Hf0.75NbTa0.5Ti1.5Zr1.25,BCC,S,CR,,8.4,,C,25,1150,,,,,,,,,
Couzinie_24,10.1016/j.msea.2017.10.073,Hf0.75NbTa0.5Ti1.5Zr1.25,BCC,S,CR,,8.4,,C,25,1100,,,,,,,,,
Couzinie_24,10.1016/j.msea.2017.10.073,Hf0.75NbTa0.5Ti1.5Zr1.25,BCC,S,CR+A,,8.4,,C,-268.8,2390,,,,103.1,,,,,
Couzinie_24,10.1016/j.msea.2017.10.073,Hf0.75NbTa0.5Ti1.5Zr1.25,BCC,S,CR+A,,8.4,,C,-196,1920,,,,,,,,,
Couzinie_24,10.1016/j.msea.2017.10.073,Hf0.75NbTa0.5Ti1.5Zr1.25,BCC,S,CR+A,,8.4,,C,-153,1370,,,,,,,,,
Couzinie_24,10.1016/j.msea.2017.10.073,Hf0.75NbTa0.5Ti1.5Zr1.25,BCC,S,CR+A,,8.4,,C,-103,1250,,,,,,,,,
Couzinie_24,10.1016/j.msea.2017.10.073,Hf0.75NbTa0.5Ti1.5Zr1.25,BCC,S,CR+A,,8.4,,C,-43,1020,,,,,,,,,
Couzinie_24,10.1016/j.msea.2017.10.073,Hf0.75NbTa0.5Ti1.5Zr1.25,BCC,S,CR+A,,8.4,,C,72,640,,,,,,,,,
Couzinie_24,10.1016/j.msea.2017.10.073,Hf0.75NbTa0.5Ti1.5Zr1.25,BCC,S,CR+A,,8.4,,C,25,890,,,,,,,,,
Couzinie_25,10.1016/j.matlet.2016.03.133,HfMo0.25NbTaTiZr,BCC,S,AC,,9.9,,C,25,1112,,,,121,,,,,
Couzinie_25,10.1016/j.matlet.2016.03.133,HfMo0.5NbTaTiZr,BCC,S,AC,,9.9,,C,25,1317,,,,130.5,,,,,
Couzinie_25,10.1016/j.matlet.2016.03.133,HfMo0.75NbTaTiZr,BCC,S,AC,,9.9,,C,25,1373,,,,139.1,,,,,
Couzinie_25,10.1016/j.matlet.2016.03.133,HfMoNbTaTiZr,BCC,S,AC,,9.9,,C,25,1512,1800,,,147,,,,,
Couzinie_25,10.1016/j.matlet.2016.03.133,HfNbTaTiZr,BCC,S,AC,,9.9,,C,25,1015,,,,110.6,,,,,
Couzinie_26,10.1016/j.jallcom.2016.10.014,HfMo0.5NbSi0.3TiV0.5,BCC+M5Si3,M,AC,,8.5,,C,1000,398,430,,,,,,,,
Couzinie_26,10.1016/j.jallcom.2016.10.014,HfMo0.5NbSi0.3TiV0.5,BCC+M5Si3,M,AC,,8.5,,C,25,1617,2016,,,,,,,,
Couzinie_26,10.1016/j.jallcom.2016.10.014,HfMo0.5NbSi0.3TiV0.5,BCC+M5Si3,M,AC,,8.5,,C,1200,166,187,,,,,,,,
Couzinie_26,10.1016/j.jallcom.2016.10.014,HfMo0.5NbSi0.5TiV0.5,BCC+M5Si3,M,AC,,8.2,,C,1000,614,696,,,,,,,,
Couzinie_26,10.1016/j.jallcom.2016.10.014,HfMo0.5NbSi0.5TiV0.5,BCC+M5Si3,M,AC,,8.2,,C,25,1787,2052,,,,,,,,
Couzinie_26,10.1016/j.jallcom.2016.10.014,HfMo0.5NbSi0.5TiV0.5,BCC+M5Si3,M,AC,,8.2,,C,1200,188,219,,,,,,,,
Couzinie_26,10.1016/j.jallcom.2016.10.014,HfMo0.5NbSi0.7TiV0.5,BCC+M5Si3,M,AC,,7.9,,C,1000,673,741,,,,,,,,
Couzinie_26,10.1016/j.jallcom.2016.10.014,HfMo0.5NbSi0.7TiV0.5,BCC+M5Si3,M,AC,,7.9,,C,25,2134,2242,,,,,,,,
Couzinie_26,10.1016/j.jallcom.2016.10.014,HfMo0.5NbSi0.7TiV0.5,BCC+M5Si3,M,AC,,7.9,,C,1200,235,268,,,,,,,,
Couzinie_26,10.1016/j.jallcom.2016.10.014,HfMo0.5NbTiV0.5,BCC,S,AC,,9,,C,1000,368,394,,,131.9,,,,,
Couzinie_26,10.1016/j.jallcom.2016.10.014,HfMo0.5NbTiV0.5,BCC,S,AC,,9,,C,1200,60,,,,,,,,,
Couzinie_26,10.1016/j.jallcom.2016.10.014,HfMo0.5NbTiV0.5,BCC,S,AC,,9,,C,25,1260,,,,,,,,,
Couzinie_29,10.1080/21663831.2016.1221861,HfNb0.18Ta0.18Ti1.27Zr,BCC,S,CR+A,,8.5,,T,25,540,995,,,95.2,,,,,
Couzinie_3,10.1016/j.matdes.2017.11.033,Al0.25NbTaTiZr,BCC+B2,M,HIP+A,,8.6,,C,1000,366,408,,,,,,,,
Couzinie_3,10.1016/j.matdes.2017.11.033,Al0.25NbTaTiZr,BCC+B2,M,HIP+A,,8.6,,C,25,1745,1830,,,,,,,,
Couzinie_3,10.1016/j.matdes.2017.11.033,Al0.5Mo0.5NbTa0.5TiZr,BCC+B2,M,HIP+A,,7.6,,C,1000,579,646,,,,,,,,
Couzinie_3,10.1016/j.matdes.2017.11.033,Al0.5Mo0.5NbTa0.5TiZr,BCC+B2,M,HIP+A,,7.6,,C,25,2350,2460,,,,,,,,
Couzinie_3,10.1016/j.matdes.2017.11.033,AlMo0.5NbTa0.5TiZr,BCC+B2,M,HIP+A,,7.1,,C,1000,745,792,,,,,,,,
Couzinie_3,10.1016/j.matdes.2017.11.033,AlMo0.5NbTa0.5TiZr,BCC+B2,M,HIP+A,,7.1,,C,25,2197,2370,,,,,,,,
Couzinie_3,10.1016/j.matdes.2017.11.033,AlMo0.5NbTa0.5TiZr0.5,B2,S,HIP+A,,7.2,,C,1000,935,1019,,,,,,,,
Couzinie_3,10.1016/j.matdes.2017.11.033,AlMo0.5NbTa0.5TiZr0.5,B2,S,HIP+A,,7.2,,C,25,,1320,,,,,,,,
Couzinie_3,10.1016/j.matdes.2017.11.033,AlNbTa0.5TiZr0.5,B2,S,HIP+A,,6.9,,C,1000,535,542,,,,,,,,
Couzinie_3,10.1016/j.matdes.2017.11.033,AlNbTa0.5TiZr0.5,B2,S,HIP+A,,6.9,,C,25,1352,1357,,,,,,,,
Couzinie_31,10.4028/www.scientific.net/MSF.849.76,HfNbSi0.5TiVZr,BCC+Laves+M5Si3,M,A,,7.5,,C,400,1273,1335,14.5,,,,,,,
Couzinie_31,10.4028/www.scientific.net/MSF.849.76,HfNbSi0.5TiVZr,BCC+Laves+M5Si3,M,A,,7.5,,C,600,597,651,>50,,,,,,,
Couzinie_31,10.4028/www.scientific.net/MSF.849.76,HfNbSi0.5TiVZr,BCC+Laves+M5Si3,M,A,,7.5,,C,800,102,107,>50,,,,,,,
Couzinie_31,10.4028/www.scientific.net/MSF.849.76,HfNbSi0.5TiVZr,BCC+Laves+M5Si3,M,A,,7.5,,C,25,1483,1611,9.5,,,,,,,
Couzinie_31,10.4028/www.scientific.net/MSF.849.76,HfNbSi0.5TiVZr,BCC+Laves+M5Si3,M,AC,,7.5,,C,600,920,1252,>50,,,,,,,
Couzinie_31,10.4028/www.scientific.net/MSF.849.76,HfNbSi0.5TiVZr,BCC+Laves+M5Si3,M,AC,,7.5,,C,800,371,427,>50,,,,,,,
Couzinie_31,10.4028/www.scientific.net/MSF.849.76,HfNbSi0.5TiVZr,BCC+Laves+M5Si3,M,AC,,7.5,,C,25,1540,1643,16.8,,,,,,,
Couzinie_32,10.1016/j.actamat.2017.09.035,HfNbTaTiZr,BCC,S,SPD,0.05,9.9,420,T,25,1900,,7.9,,110.6,,,,,
Couzinie_32,10.1016/j.actamat.2017.09.035,HfNbTaTiZr,BCC+HCP,M,SPD+A,0.05,9.9,530,T,25,1520,,1.7,,,,,,,
Couzinie_32,10.1016/j.actamat.2017.09.035,HfNbTaTiZr,BCC+BCC+HCP,M,SPD+A,0.1,9.9,340,T,25,795,,5,,,,,,,
Couzinie_32,10.1016/j.actamat.2017.09.035,HfNbTaTiZr,BCC,S,CR+A,100,9.9,309,T,25,830,840,9.2,,110.6,,,,,
Couzinie_33,10.1016/j.jallcom.2015.07.209,HfNbTaTiZr,BCC,S,CR,,9.9,366,T,25,1202,1295,4.7,,110.6,,,,,
Couzinie_33,10.1016/j.jallcom.2015.07.209,HfNbTaTiZr,BCC+BCC,M,CR+A,,9.9,,T,25,1303,1334,,,,,,,,
Couzinie_33,10.1016/j.jallcom.2015.07.209,HfNbTaTiZr,BCC,S,CR+A,,9.9,351,T,25,1145,1262,9.7,,110.6,,,,,
Couzinie_34,10.1016/j.matlet.2016.08.060,HfNbTaTiZr,BCC,S,CR+A,,9.9,,T,25,958,974,,,110.6,,,,,
Couzinie_34,10.1016/j.matlet.2016.08.060,HfNbTaTiZr,BCC,S,CR+A,,9.9,,T,25,944,959,,,110.6,,,,,
Couzinie_34,10.1016/j.matlet.2016.08.060,HfNbTaTiZr,BCC,S,CR+A,,9.9,,T,25,940,953,,,110.6,,,,,
Couzinie_35,10.1016/j.actamat.2017.09.062,HfNbTaTiZr,BCC,S,CR+A,,9.9,,T,25,940,1080,,,110.6,,,,,
Couzinie_36,10.1016/j.jallcom.2011.02.171,HfNbTaTiZr,BCC,S,HIP+A,,9.9,,C,25,929,,,,110.6,,,,,
Couzinie_37,10.1016/j.msea.2015.08.024,HfNbTaTiZr,BCC,S,AC,,9.9,,C,25,905,,,,110.6,,,,,
Couzinie_38,10.1016/j.matchar.2015.11.018,HfNbTaTiZr,BCC,S,AC,,9.9,,C,25,890,,,,110.6,,,,,
Couzinie_39,10.1016/j.msea.2015.12.017,HfNbTaTiZr,BCC,S,AC,,9.9,,T,25,828,862,,,110.6,,,,,
Couzinie_39,10.1016/j.msea.2015.12.017,HfNbTaTiZr,BCC,S,AC,,9.9,,T,25,827,856,,,110.6,,,,,
Couzinie_39,10.1016/j.msea.2015.12.017,HfNbTaTiZr,BCC,S,AC,,9.9,,T,25,820,869,,,110.6,,,,,
Couzinie_39,10.1016/j.msea.2015.12.017,HfNbTaTiZr,BCC,S,AC,,9.9,,T,25,803,810,,,110.6,,,,,
Couzinie_4,10.4028/www.scientific.net/MSF.898.638,Al0.2MoTaTiV,BCC,S,AC,,9.2,,C,25,1021,1249,,,184,,,,,
Couzinie_4,10.4028/www.scientific.net/MSF.898.638,Al0.6MoTaTiV,BCC,S,AC,,8.6,,C,25,962,1033,,,174.1,,,,,
Couzinie_4,10.4028/www.scientific.net/MSF.898.638,AlMoTaTiV,BCC,S,AC,,8.2,,C,25,,735,,,165.8,,,,,
Couzinie_4,10.4028/www.scientific.net/MSF.898.638,MoTaTiV,BCC,S,AC,,9.5,,C,25,1221,1454,,,189.8,,,,,
Couzinie_41,10.1016/j.actamat.2016.01.018,HfNbTaZr,BCC+HCP,M,A,,11.1,571,C,25,2310,,0.3,,,,,,,
Couzinie_41,10.1016/j.actamat.2016.01.018,HfNbTaZr,BCC+HCP,M,A,,11.1,536,C,25,2100,2200,3.5,,,,,,,
Couzinie_41,10.1016/j.actamat.2016.01.018,HfNbTaZr,BCC+HCP,M,A,,11.1,,C,25,2020,2030,1.7,,,,,,,
Couzinie_41,10.1016/j.actamat.2016.01.018,HfNbTaZr,BCC+HCP,M,A,,11.1,550,C,25,1950,2010,2.2,,,,,,,
Couzinie_41,10.1016/j.actamat.2016.01.018,HfNbTaZr,BCC,S,AC,,11.1,365,C,25,1315,1800,21.6,,109.3,,,,,
Couzinie_43,10.1002/adma.201701678,HfTa0.4TiZr,BCC+HCP,M,AC,,9.2,,T,25,400,1100,,,,,,,,
Couzinie_43,10.1002/adma.201701678,HfTa0.5TiZr,BCC+HCP,M,AC,,9.4,,T,25,700,1100,,,,,,,,
Couzinie_43,10.1002/adma.201701678,HfTa0.6TiZr,BCC+HCP,M,AC,,9.6,,T,25,800,1100,,,,,,,,
Couzinie_43,10.1002/adma.201701678,HfTaTiZr,BCC,S,AC,,10.2,,T,25,1500,1500,,,112,,,,,
Couzinie_45,10.1016/j.msea.2017.12.004,MoNbTaTi0.25W,BCC,S,AC,,13,478.3,C,25,1109,1197,,,249.4,,,,,
Couzinie_45,10.1016/j.msea.2017.12.004,MoNbTaTi0.5W,BCC,S,AC,,12.6,481.2,C,25,1211,1578,,,242,,,,,
Couzinie_45,10.1016/j.msea.2017.12.004,MoNbTaTi0.75W,BCC,S,AC,,12.1,495.6,C,25,1304,1593,,,235.4,,,,,
Couzinie_45,10.1016/j.msea.2017.12.004,MoNbTaTiW,BCC,S,AC,,11.7,507.5,C,25,1455,1910,,,229.4,,,,,
Couzinie_45,10.1016/j.msea.2017.12.004,MoNbTaW,BCC,S,AC,,13.6,,C,25,996,1148,,,257.8,,,,,
Couzinie_46,10.1016/j.jallcom.2016.11.188,MoNbTaTiV,BCC,S,AC,,9.3,,C,25,1400,2450,,,172.8,,,,,
Couzinie_47,10.1016/j.intermet.2017.01.007,MoNbTaTiVW,BCC,S,AC,,10.9,,C,600,973,1590,,,212.5,,,,,
Couzinie_47,10.1016/j.intermet.2017.01.007,MoNbTaTiVW,BCC,S,AC,,10.9,,C,800,791.3,1180,,,,,,,,
Couzinie_47,10.1016/j.intermet.2017.01.007,MoNbTaTiVW,BCC,S,AC,,10.9,,C,1000,752.8,1105,,,,,,,,
Couzinie_47,10.1016/j.intermet.2017.01.007,MoNbTaTiVW,BCC,S,AC,,10.9,,C,1200,659,696,,,,,,,,
Couzinie_47,10.1016/j.intermet.2017.01.007,MoNbTaTiVW,BCC,S,AC,,10.9,,C,25,1515,2135,,,,,,,,
Couzinie_47,10.1016/j.intermet.2017.01.007,MoNbTaTiW,BCC,S,AC,,11.7,,C,600,689,1681,,,229.4,,,,,
Couzinie_47,10.1016/j.intermet.2017.01.007,MoNbTaTiW,BCC,S,AC,,11.7,,C,800,674,1618,,,,,,,,
Couzinie_47,10.1016/j.intermet.2017.01.007,MoNbTaTiW,BCC,S,AC,,11.7,,C,1000,620,1426,,,,,,,,
Couzinie_47,10.1016/j.intermet.2017.01.007,MoNbTaTiW,BCC,S,AC,,11.7,,C,1200,586,814,,,,,,,,
Couzinie_47,10.1016/j.intermet.2017.01.007,MoNbTaTiW,BCC,S,AC,,11.7,,C,25,1343,2005,,,,,,,,
Couzinie_48,10.1016/j.msec.2016.12.057,MoNbTaTiZr,BCC+BCC,M,AC,,9.1,,C,25,1390,,,,,,,,,
Couzinie_49,10.1016/j.scriptamat.2016.10.028,MoNbTaTiZr,BCC+BCC,M,A,,9.1,,C,25,1100,1200,,,,,,,,
Couzinie_49,10.1016/j.scriptamat.2016.10.028,MoNbTaTiZr,BCC+BCC,M,AC,,9.1,,C,25,1375,1450,,,,,,,,
Couzinie_51,10.1016/j.msea.2017.12.021,MoNbTaVW,BCC,S,SPS,,12.3,,C,25,2612,3472,,,231.8,,,,,
Couzinie_54,10.1016/j.msea.2016.07.102,NbTaTiV,BCC,S,AC,,9.1,,C,25,965,,,,133.8,,,,,
Couzinie_54,10.1016/j.msea.2016.07.102,NbTaTiVW,BCC,S,AC,,11,,C,25,1420,1800,20,,189.2,,,,,
Couzinie_54,10.1016/j.msea.2016.07.102,NbTaVW,BCC,S,AC,,12.8,,C,25,1530,1700,12,,207.5,,,,,
Couzinie_8,10.1016/j.matlet.2016.11.030,Al0.5CrNbTi2V0.5,BCC+Laves,M,A,,5.8,,C,600,930,,,,,,,,,
Couzinie_8,10.1016/j.matlet.2016.11.030,Al0.5CrNbTi2V0.5,BCC+Laves,M,A,,5.8,,C,800,445,,,,143,,,,,
Couzinie_8,10.1016/j.matlet.2016.11.030,Al0.5CrNbTi2V0.5,BCC+Laves,M,A,,5.8,,C,1000,90,,,,,,,,,
Couzinie_8,10.1016/j.matlet.2016.11.030,Al0.5CrNbTi2V0.5,BCC+Laves,M,A,,5.8,,C,25,1340,1700,,,,,,,,
Couzinie_8,10.1016/j.matlet.2016.11.030,Al0.5CrNbTi2V0.5,BCC,S,AC,,5.8,,C,25,1240,,,,,,,,,
Couzinie_9,10.1016/j.jallcom.2015.08.224,AlCr0.5NbTiV,BCC,S,A,,5.6,,C,600,1005,1045,,,124.1,,,,,
Couzinie_9,10.1016/j.jallcom.2015.08.224,AlCr0.5NbTiV,BCC,S,A,,5.6,,C,800,640,685,,,,,,,,
Couzinie_9,10.1016/j.jallcom.2015.08.224,AlCr0.5NbTiV,BCC,S,A,,5.6,,C,1000,40,80,,,,,,,,
Couzinie_9,10.1016/j.jallcom.2015.08.224,AlCr0.5NbTiV,BCC,S,A,,5.6,,C,25,1300,1430,,,,,,,,
Couzinie_9,10.1016/j.jallcom.2015.08.224,AlCr1.5NbTiV,BCC+Laves,M,A,,5.8,,C,600,1370,1480,,,,,,,,
Couzinie_9,10.1016/j.jallcom.2015.08.224,AlCr1.5NbTiV,BCC+Laves,M,A,,5.8,,C,800,970,1045,,,,,,,,
Couzinie_9,10.1016/j.jallcom.2015.08.224,AlCr1.5NbTiV,BCC+Laves,M,A,,5.8,,C,1000,75,105,,,,,,,,
Couzinie_9,10.1016/j.jallcom.2015.08.224,AlCr1.5NbTiV,BCC+Laves,M,A,,5.8,,C,25,1700,1700,,,,,,,,
Couzinie_9,10.1016/j.jallcom.2015.08.224,AlCrNbTiV,BCC+Laves,M,A,,5.7,,C,600,1015,1060,,,,,,,,
Couzinie_9,10.1016/j.jallcom.2015.08.224,AlCrNbTiV,BCC+Laves,M,A,,5.7,,C,800,860,895,,,,,,,,
Couzinie_9,10.1016/j.jallcom.2015.08.224,AlCrNbTiV,BCC+Laves,M,A,,5.7,,C,1000,65,95,,,,,,,,
Couzinie_9,10.1016/j.jallcom.2015.08.224,AlCrNbTiV,BCC+Laves,M,A,,5.7,,C,25,1550,1570,,,,,,,,
Couzinie_9,10.1016/j.jallcom.2015.08.224,AlNbTiV,BCC,S,A,,5.5,,C,600,780,1005,,,104.8,,,,,
Couzinie_9,10.1016/j.jallcom.2015.08.224,AlNbTiV,BCC,S,A,,5.5,,C,800,560,700,,,,,,,,
Couzinie_9,10.1016/j.jallcom.2015.08.224,AlNbTiV,BCC,S,A,,5.5,,C,1000,110,,,,,,,,,
Couzinie_9,10.1016/j.jallcom.2015.08.224,AlNbTiV,BCC,S,A,,5.5,,C,25,1000,1280,,,,,,,,
new_ref_2,10.1002/maco.201709833,AlCrFeNiMo0.5,BCC+B2,M,AC,,,623.7,C,25,1914.1,4023.6,27.9,,,,,,,
new_ref_2,10.1002/maco.201709833,AlCrFeNiMo0.5Ti0.25,BCC+B2,M,AC,,,712,C,25,2161.7,3641.5,14.3,,,,,,,
new_ref_2,10.1002/maco.201709833,AlCrFeNiMo0.5Ti0.4,BCC+B2,M,AC,,,731.9,C,25,2185.1,3673.4,14.8,,,,,,,
new_ref_2,10.1002/maco.201709833,AlCrFeNiMo0.5Ti0.5,BCC+B2,M,AC,,,751.7,C,25,2228.7,3166.2,10.4,,,,,,,
new_ref_2,10.1002/maco.201709833,AlCrFeNiMo0.5Ti0.6,BCC+B2,M,AC,,,756.1,C,25,1314.5,1314.5,,,,,,,,
new_ref_2,10.1002/maco.201709833,AlCrFeNiMo0.5Ti0.75,BCC+B2,M,AC,,,766.2,C,25,618.8,618.8,,,,,,,,
new_ref_4,10.1016/j.matdes.2018.06.003,AlCrMoNb,Laves (C14)+A15,M,A,,,,,,,,,,,,,,,
new_ref_4,10.1016/j.matdes.2018.06.003,AlCrMoNb,Laves (C14)+A15,M,AC,,,,,,,,,,,,,,,
new_ref_4,10.1016/j.matdes.2018.06.003,AlHfNbTi,B2,S,A,,,,,,,,,,,,,,,
new_ref_4,10.1016/j.matdes.2018.06.003,AlHfNbTi,B2,S,AC,,,,,,,,,,,,,,,
new_ref_4,10.1016/j.matdes.2018.06.003,AlHfTaTi,B2,S,A,,,,,,,,,,,,,,,
new_ref_4,10.1016/j.matdes.2018.06.003,AlHfTaTi,B2,S,AC,,,,,,,,,,,,,,,
new_ref_4,10.1016/j.matdes.2018.06.003,AlMoNbTi,BCC+A15,M,A,,,,,,,,,,,,,,,
new_ref_4,10.1016/j.matdes.2018.06.003,AlMoNbTi,BCC,S,AC,,,509 $\pm$ 18,,,,,,,,,,,,
new_ref_4,10.1016/j.matdes.2018.06.003,AlNbTaTi,BCC+A15,M,A,,,,,,,,,,,,,,,
new_ref_4,10.1016/j.matdes.2018.06.003,AlNbTaTi,BCC,S,AC,,,458 $\pm$ 10,,,,,,,,,,,,
new_ref_4,10.1016/j.matdes.2018.06.003,CrMoTaTi,BCC,S,A,,,555 $\pm$ 24,,,,,,,,,,,,
new_ref_4,10.1016/j.matdes.2018.06.003,CrMoTaTi,BCC,S,AC,,,539 $\pm$ 32,,,,,,,,,,,,
new_ref_4,10.1016/j.matdes.2018.06.003,CrNbTaTi,BCC+Laves (C15),M,A,,,,,,,,,,,,,,,
new_ref_4,10.1016/j.matdes.2018.06.003,CrNbTaTi,BCC,S,AC,,,495 $\pm$ 26,,,,,,,,,,,,
new_ref_4,10.1016/j.matdes.2018.06.003,CrNbTiW,BCC+Laves (C15),M,A,,,630 $\pm$ 28,,,,,,,,,,,,
new_ref_4,10.1016/j.matdes.2018.06.003,CrNbTiW,BCC,S,AC,,,630 $\pm$ 24,,,,,,,,,,,,
new_ref_4,10.1016/j.matdes.2018.06.003,HfNbTaTi,BCC,S,A,,,280 $\pm$ 10,,,,,,,,,,,,
new_ref_4,10.1016/j.matdes.2018.06.003,HfNbTaTi,BCC,S,AC,,,270 $\pm$ 5,,,,,,,,,,,,
new_ref_4,10.1016/j.matdes.2018.06.003,MoNbTaTiW,BCC,S,A,,,482 $\pm$ 10,,,,,,,,,,,,
new_ref_4,10.1016/j.matdes.2018.06.003,MoNbTaTiW,BCC,S,AC,,,446 $\pm$ 32,,,,,,,,,,,,
new_ref_4,10.1016/j.matdes.2018.06.003,MoNbTaTi,BCC,S,A,,,407 $\pm$ 17,,,,,,,,,,,,
new_ref_4,10.1016/j.matdes.2018.06.003,MoNbTaTi,BCC,S,AC,,,431 $\pm$ 7,,,,,,,,,,,,