File: test_functions/ML_outlier_id/outliers/Property Elongation.csv
,FORMULA,PROPERTY: Elongation (%),Predicted Property Elongation,Predicted Property Elongation loss,REFERENCE: doi
1040,Co0.5 Fe0.5 Mo0.1 Ni1 V0.25,189.2,161.8,52.2,10.1016/j.scriptamat.2019.02.038
1041,Co0.5 Fe0.5 Mo0.1 Ni1 V0.25,154.3,147.8,37.6,10.1016/j.scriptamat.2019.02.038
1042,Co0.5 Fe0.5 Mo0.1 Ni1 V0.25,119.5,129.4,33.3,10.1016/j.scriptamat.2019.02.038
1137,Al0.15 Cr0.5 Cu0.25 Fe0.5 Ni1,39.0,55.7,32.8,10.1016/j.matchar.2019.109792
726,Co1 Cr1 Fe1 Mn1 Ni1 V0.5,75.0,58.9,32.0,10.1134/S0031918X17060084
1039,Co0.5 Fe0.5 Mo0.1 Ni1 V0.25,82.1,67.6,30.1,10.1016/j.scriptamat.2019.02.038
727,Co1 Cr1 Fe1 Mn1 Ni1 V0.765,8.0,20.3,29.9,10.1134/S0031918X17060084
747,Al1 Co1 Cr1 Cu1 Fe1 Ni1,63.0,45.0,29.4,10.1016/j.msea.2011.11.045
844,Co1 Cr0.455 Fe0.364 Ni0.364,20.3,34.9,28.8,10.1080/21663831.2018.1553803
746,Al1 Co1 Cr1 Cu1 Fe1 Ni1,5.0,20.7,28.4,10.1016/j.msea.2011.11.045
1038,Co0.5 Fe0.5 Mo0.1 Ni1 V0.25,28.8,40.0,27.5,10.1016/j.scriptamat.2019.02.038
724,Co1 Cr1 Fe1 Mn1 Ni1,75.0,59.6,26.7,10.1134/S0031918X17060084
845,Co1 Cr0.385 Fe0.154 Ni0.154,13.3,25.7,26.0,10.1080/21663831.2018.1553803
1135,Al0.15 Cr0.5 Cu0.25 Fe0.5 Ni1,98.0,87.3,25.3,10.1016/j.matchar.2019.109792
1400,Al0.312 Ca0.021 Li0.792 Mg1 Si0.021,9.0,23.6,24.8,10.3390/ma12071136
288,Cr1 Mo0.5 Nb1 Ta0.5 Ti1 Zr1,5.5,20.8,24.3,10.1016/j.msea.2011.09.033
1359,Co0.139 Cr0.446 Cu0.99 Ni1 Si0.277,3.4,13.6,24.2,10.1016/j.msea.2019.05.003
743,Al1 Co1 Cr1 Cu1 Fe1 Ni1,1.0,10.6,24.2,10.1016/j.msea.2011.11.045
725,Co1 Cr1 Fe1 Mn1 Ni1 V0.263,75.0,65.0,23.7,10.1134/S0031918X17060084
1409,Cr1 Fe1 Ni1 Ti0.2,5.8,17.0,23.4,10.1557/jmr.2019.40
697,Al0.167 Co1 Cr1 Fe1 Ni1 Ti0.083,70.0,55.6,23.4,10.1016/j.actamat.2015.08.076
1381,Co1 Cr0.2 Fe1 Ni1 Si0.2,60.0,37.0,22.6,10.1016/j.jmmm.2019.01.096
1380,Co1 Cr0.2 Fe1 Ni1 Si0.2,10.0,37.0,22.6,10.1016/j.jmmm.2019.01.096
1037,Co0.5 Fe0.5 Mo0.1 Ni1 V0.25,34.6,38.4,22.4,10.1016/j.scriptamat.2019.02.038
843,Co1 Cr0.556 Fe0.667 Ni0.667,76.1,72.3,22.4,10.1080/21663831.2018.1553803
1480,Hf1 Mo1 Ta1 Ti1 Zr1,4.0,16.4,22.3,10.3390/e21010015
319,Hf1 Mo1 Ta1 Ti1 Zr1,4.0,16.4,22.3,10.1016/j.intermet.2015.03.013
332,Hf1 Nb1 Ta1 Ti1 Zr1,50.0,39.5,22.0,10.1007/s10853-012-6260-2
292,Cr1 Nb1 Ti1 V1 Zr1,10.0,21.5,21.7,10.1016/j.msea.2012.12.018
1402,Al0.333 Ca0.011 Li0.867 Mg1 Si0.011,63.0,51.2,21.7,10.3390/ma12071136
397,Cu1 Mn1 Ni1 Sn0.111,20.0,31.2,20.6,10.1016/j.jallcom.2015.07.285
263,Al1 Mo0.5 Nb1 Ta0.5 Ti1 Zr1,11.0,22.3,20.5,10.1007/s11837-014-1066-0
842,Co0.875 Cr0.625 Fe1 Ni1,96.2,85.8,20.2,10.1080/21663831.2018.1553803
1181,Co1 Cr1 Fe1 Ni1 Ti0.3,60.0,48.7,20.1,10.1016/j.msea.2019.138181
1136,Al0.15 Cr0.5 Cu0.25 Fe0.5 Ni1,73.0,71.3,20.1,10.1016/j.matchar.2019.109792
18,Co1 Cr1 Fe1 Nb0.206 Ni1,9.0,18.8,20.0,10.1016/j.intermet.2015.01.004
267,Al0.667 Nb1 Ta0.333 Ti1 Zr0.333,12.0,21.8,19.9,10.1007/s11837-014-1066-0
1379,Co1 Cr0.2 Fe1 Ni1 Si0.2,61.0,51.5,19.6,10.1016/j.jmmm.2019.01.096
1401,Al0.333 Ca0.011 Li0.844 Mg1 Si0.033,44.0,40.7,19.5,10.3390/ma12071136
841,Co0.5 Cr0.5 Fe1 Ni1,77.3,75.5,19.3,10.1080/21663831.2018.1553803
296,Cr1 Nb1 Ti1 Zr1,50.0,42.1,19.1,10.1016/j.msea.2012.12.018
728,Co1 Cr1 Fe1 Mn1 Ni1 V1,1.0,7.8,19.1,10.1134/S0031918X17060084
1138,Al0.15 Cr0.5 Cu0.25 Fe0.5 Ni1,88.0,82.5,19.0,10.1016/j.matchar.2019.109792
533,Hf1 Nb1 Si0.5 Ti1 V1 Zr1,14.5,23.7,18.9,10.4028/www.scientific.net/MSF.849.76
1345,Al0.143 Cr0.343 Fe1 Mn0.8 Ni0.571,48.0,29.5,18.9,10.1016/j.msea.2019.05.056
1347,Al0.143 Cr0.343 Fe1 Mn0.8 Ni0.571,6.78,29.5,18.9,10.1016/j.msea.2019.05.056
769,Co1 Cr1 Fe1 Mn1 Ni1,57.0,52.4,18.8,10.1016/j.scriptamat.2018.11.042
394,Cu1 Mn1 Ni1 Zn0.333,60.0,52.7,18.7,10.1016/j.jallcom.2015.07.285
19,Co1 Cr1 Fe1 Nb0.309 Ni1,4.0,11.9,18.5,10.1016/j.intermet.2015.01.004
1399,Al0.429 Ca0.286 Li1 Mg1 Si0.143,13.0,18.4,18.4,10.3390/ma12071136
737,Al0.242 Co0.515 Cr0.515 Cu0.242 Fe0.515 Ni1,0.1,19.1,18.2,10.1007/s11837-013-0756-3
738,Al0.242 Co0.515 Cr0.515 Cu0.242 Fe0.515 Ni1,39.0,19.1,18.2,10.1007/s11837-013-0756-3
729,Al0.304 Co1 Cr1 Fe1 Ni1,25.0,36.3,18.0,10.1016/j.msea.2015.02.072
312,Hf1 Mo0.75 Nb1 Ta1 Ti1 Zr1,50.0,40.7,17.9,10.1016/j.matlet.2016.03.133
293,Cr1 Nb1 Ti1 V1 Zr1,50.0,43.0,17.8,10.1016/j.msea.2012.12.018
1454,Nb1 Ti1 Zr1,14.2,23.0,17.7,10.3390/e21020114
1121,Nb1 Ti1 Zr1,48.0,38.6,17.5,10.1007/s12598-019-01310-6
1122,Hf1 Nb1 Ti1 Zr1,52.0,42.4,17.5,10.1007/s12598-019-01310-6
1411,Cr1 Fe1 Ni1 Ti0.4,6.5,12.5,17.4,10.1557/jmr.2019.40
16,Co1 Cr1 Fe1 Nb0.103 Ni1,19.0,26.1,17.2,10.1016/j.intermet.2015.01.004
1476,Co1 Cr1 Fe1 Mn1 Ni1,47.0,53.4,17.1,10.1080/00325899.2018.1554834
1378,Al0.8 Cr1 Fe1 Mn1 Ni1,55.0,47.8,17.0,10.1016/j.msea.2019.04.104
1005,Co1 Cr0.25 Ni1,36.0,66.0,16.8,10.1016/j.actamat.2019.04.017
1348,Al0.286 Cr0.343 Fe1 Mn0.657 Ni0.571,5.83,24.8,16.8,10.1016/j.msea.2019.05.056
1346,Al0.286 Cr0.343 Fe1 Mn0.657 Ni0.571,42.2,24.8,16.8,10.1016/j.msea.2019.05.056
1006,Co1 Cr0.25 Ni1,53.0,66.0,16.8,10.1016/j.actamat.2019.04.017
1008,Co1 Cr0.25 Ni1,101.0,66.0,16.8,10.1016/j.actamat.2019.04.017
1007,Co1 Cr0.25 Ni1,73.0,66.0,16.8,10.1016/j.actamat.2019.04.017
723,Al0.515 Cr0.515 Cu0.515 Fe0.515 Ni1,30.0,29.7,16.7,10.1016/j.msea.2015.09.089
273,Hf1 Nb1 Ta1 Ti1 Zr1,50.0,43.6,16.7,10.1016/j.jallcom.2014.11.064
314,Hf1 Nb1 Ta1 Ti1 Zr1,50.0,43.6,16.7,10.1016/j.matlet.2016.03.133
1130,Co1 Cr1 Fe1 Ni1 W0.2,52.0,51.7,16.6,10.1016/j.intermet.2019.106550
762,Al0.25 Cr0.417 Fe0.417 Ni1,45.0,40.8,16.5,10.1016/j.jallcom.2018.08.176
295,Cr1 Nb1 Ti1 Zr1,6.0,10.9,16.5,10.1016/j.msea.2012.12.018
299,Nb0.5 Ti0.5 V1 Zr0.5,50.0,43.7,16.5,10.1016/j.msea.2012.12.018
17,Co1 Cr1 Fe1 Nb0.155 Ni1,23.0,26.8,16.3,10.1016/j.intermet.2015.01.004
771,Co1 Cr1 Fe1 Mn1 Ni1,0.7,8.1,16.3,10.1016/j.scriptamat.2018.11.042
1131,Co1 Cr1 Fe1 Ni1 W0.5,35.6,40.3,16.3,10.1016/j.intermet.2019.106550
770,Co1 Cr1 Fe1 Mn1 Ni1,6.0,8.1,16.3,10.1016/j.scriptamat.2018.11.042
1398,Al0.569 Ca0.143 Li0.857 Mg1 Si0.286 Y0.003,3.0,9.6,16.1,10.3390/ma12071136
745,Al1 Co1 Cr1 Fe1 Ni1,12.0,13.7,16.1,10.1016/j.msea.2015.08.078
749,Al0.5 Co1 Cr1 Cu1 Fe1 Ni1,12.0,12.5,16.0,10.1016/j.jallcom.2009.10.088
748,Al0.5 Co1 Cr1 Cu1 Fe1 Ni1,5.0,12.5,16.0,10.1016/j.jallcom.2009.10.088
399,Cu1 Mn1 Ni1 Sn0.053,63.0,55.0,15.9,10.1016/j.jallcom.2015.07.285
736,Al0.242 Co0.515 Cr0.515 Cu0.242 Fe0.515 Ni1,9.0,15.7,15.8,10.1007/s11837-013-0756-3
268,Al0.667 Nb1 Ta0.333 Ti1 Zr0.333,50.0,44.2,15.8,10.1007/s11837-014-1066-0
1184,Co0.333 Cr0.667 Fe0.667 Ni1 Ti0.2,46.0,39.1,15.8,10.1016/j.msea.2019.138181
1256,Co0.476 Cr0.476 Fe0.476 Nb0.095 Ni1,19.0,27.1,15.7,10.1016/j.matlet.2019.04.012
56,Al0.7 Co0.3 Cr1 Fe1 Ni1,8.0,16.2,15.4,10.1016/j.matdes.2013.04.061
1025,Al1 Cr1 Cu1 Fe1 Ni1,5.0,13.1,15.3,10.1016/j.jallcom.2019.01.341
686,Co1 Cr1 Fe1 Mo0.083 Ni1,51.1,48.1,15.3,10.1016/j.actamat.2016.06.063
345,Mo1 Nb1 Ta1 V1 W1,40.0,32.5,15.2,10.1016/j.intermet.2011.01.004
348,Mo1 Nb1 Ta1 W1,40.0,33.5,15.2,10.1016/j.intermet.2011.01.004
688,Co1 Cr1 Fe1 Mo0.304 Ni1,49.3,43.7,15.1,10.1016/j.actamat.2016.06.063
331,Hf0.333 Nb0.333 Ta0.333 Ti1 Zr0.667,19.0,21.8,15.1,10.1063/1.49667
289,Cr1 Mo0.5 Nb1 Ta0.5 Ti1 Zr1,50.0,45.6,14.9,10.1016/j.msea.2011.09.033
303,Nb1 Ti1 V1 Zr1,50.0,44.4,14.8,10.1016/j.msea.2012.12.018
751,Co1 Cr1 Fe1 Ni1 Ti0.2,46.0,39.5,14.7,10.1016/j.actamat.2018.11.049
1257,Co0.476 Cr0.476 Fe0.476 Nb0.19 Ni1,3.0,8.8,14.6,10.1016/j.matlet.2019.04.012
248,Al1 Li1 Mg1 Sn1 Zn1,1.0,7.2,14.5,10.1007/s11837-015-1402-z
1431,Hf1 Ti1 Zr1,17.0,21.3,14.2,10.1007/s00339-019-2484-1
315,Hf1 Mo1 Nb1 Ta1 Ti1 Zr1,12.0,18.0,14.1,10.1016/j.intermet.2015.03.013
313,Hf1 Mo1 Nb1 Ta1 Ti1 Zr1,12.0,18.0,14.1,10.1016/j.matlet.2016.03.133
1255,Co0.476 Cr0.476 Fe0.476 Nb0.19 Ni1,7.0,10.4,14.1,10.1016/j.matlet.2019.04.012
1479,Hf1 Mo1 Nb1 Ta1 Ti1 Zr1,12.0,18.0,14.1,10.3390/e21010015
10,Co1 Cr1 Mn1 Ni1,44.0,40.5,14.1,10.1016/j.actamat.2014.08.026
1453,Ta1 Ti1 Zr1,0.0,5.8,14.0,10.3390/e21020114
20,Co1 Cr1 Fe1 Nb0.412 Ni1,1.0,6.0,13.9,10.1016/j.intermet.2015.01.004
125,Al0.2 Co1 Cr1 Fe1 Mn1 Ni1,56.0,52.4,13.9,10.1016/j.actamat.2013.09.037
270,Al0.5 Hf1 Nb1 Ta1 Ti1 Zr1,46.0,40.3,13.9,10.1016/j.jallcom.2014.11.064
269,Al0.3 Hf1 Nb1 Ta1 Ti1 Zr1,50.0,45.0,13.9,10.1016/j.jallcom.2014.11.064
1254,Co0.476 Cr0.476 Fe0.476 Nb0.095 Ni1,32.0,30.1,13.8,10.1016/j.matlet.2019.04.012
395,Cu1 Mn1 Ni1 Zn0.25,65.0,59.1,13.8,10.1016/j.jallcom.2015.07.285
807,C1 Co1 Cr1 Fe1 Mn1 Ni1,31.9,33.1,13.8,10.1016/j.msea.2019.01.050
699,Al0.167 Co1 Cr1 Fe1 Ni1 Ti0.083,17.0,30.1,13.6,10.1016/j.actamat.2015.08.076
698,Al0.167 Co1 Cr1 Fe1 Ni1 Ti0.083,39.0,30.1,13.6,10.1016/j.actamat.2015.08.076
757,Co1 Cr1 Fe1 Mn1 Ni1,10.3,19.3,13.6,10.1016/j.msea.2018.10.094
333,Hf1 Nb1 Ta1 Ti1 Zr1,50.0,46.9,13.5,10.1007/s10853-012-6260-2
1456,Nb0.333 Ta0.667 Ti0.667 Zr1,0.0,5.5,13.5,10.3390/e21020114
1445,Co1 Cr1 Cu1 Fe1 Ni1 V0.19,28.0,35.6,13.5,10.1007/s11665-018-3837-1
396,Al0.111 Cu1 Mn1 Ni1,40.0,44.0,13.4,10.1016/j.jallcom.2015.07.285
1280,Co0.25 Cr0.25 Fe1 Mn1,26.5,42.5,13.4,10.1016/j.msea.2019.138039
1279,Co0.25 Cr0.25 Fe1 Mn1,55.7,42.5,13.4,10.1016/j.msea.2019.138039
1009,Co1 Cr1 Fe1 Ni1,39.0,68.3,13.3,10.1016/j.actamat.2019.04.017
1010,Co1 Cr1 Fe1 Ni1,51.0,68.3,13.3,10.1016/j.actamat.2019.04.017
1011,Co1 Cr1 Fe1 Ni1,65.0,68.3,13.3,10.1016/j.actamat.2019.04.017
1012,Co1 Cr1 Fe1 Ni1,85.0,68.3,13.3,10.1016/j.actamat.2019.04.017
1013,Co1 Cr1 Fe1 Ni1,105.0,68.3,13.3,10.1016/j.actamat.2019.04.017
9,Co1 Cr1 Fe1 Ni1,39.0,68.3,13.3,10.1016/j.actamat.2014.08.026
344,Mo1 Nb1 Ta1 V1 W1,7.5,14.5,13.3,10.1016/j.intermet.2011.01.004
761,Al0.304 Cr0.435 Fe0.435 Ni1,30.0,27.1,13.1,10.1016/j.jallcom.2018.08.176
1073,Al0.278 Co0.694 Cr0.222 Fe0.417 Ni1 Ti0.167,49.0,34.2,13.0,10.3390/e21020169
1078,Al0.278 Co0.694 Cr0.222 Fe0.417 Ni1 Ti0.167,27.0,34.2,13.0,10.3390/e21020169
347,Mo1 Nb1 Ta1 W1,2.0,8.3,13.0,10.1016/j.intermet.2011.01.004
328,Hf1 Nb1 Si0.5 Ti1 V1,50.0,46.4,13.0,10.1016/j.matlet.2016.03.092
311,Hf1 Mo0.5 Nb1 Ta1 Ti1 Zr1,50.0,45.9,12.9,10.1016/j.matlet.2016.03.133
478,Cr1 Ta1 V1 W1,1.5,5.4,12.9,10.1016/j.matchemphys.2017.06.054
11,Co1 Cr1 Ni1,60.0,53.0,12.8,10.1016/j.actamat.2014.08.026
1185,Cr0.5 Fe0.5 Ni1 Ti0.15,37.0,36.4,12.8,10.1016/j.msea.2019.138181
763,Co1 Cr1 Ni1,23.0,53.0,12.8,10.1016/j.actamat.2018.12.015
765,Co1 Cr1 Ni1,76.0,53.0,12.8,10.1016/j.actamat.2018.12.015
764,Co1 Cr1 Ni1,53.0,53.0,12.8,10.1016/j.actamat.2018.12.015
1372,Al0.667 Co0.667 Cu0.667 Fe0.667 Ni1,35.9,29.9,12.7,10.1016/j.jmst.2018.12.014
308,C0.1 Hf0.5 Mo0.5 Nb1 Ti1 Zr1,38.0,32.7,12.7,10.1016/j.intermet.2015.09.011
290,Cr1 Mo0.5 Nb1 Ta0.5 Ti1 Zr1,50.0,46.9,12.7,10.1016/j.msea.2011.09.033
1281,Co0.25 Cr0.25 Fe1 Mn1,22.6,45.0,12.7,10.1016/j.msea.2019.138039
256,Al0.4 Hf0.6 Nb1 Ta1 Ti1 Zr1,10.0,12.9,12.7,10.1007/s11837-014-1066-0
1284,Co0.25 Cr0.25 Fe1 Mn1,69.4,45.0,12.7,10.1016/j.msea.2019.138039
1283,Co0.25 Cr0.25 Fe1 Mn1,55.3,45.0,12.7,10.1016/j.msea.2019.138039
1282,Co0.25 Cr0.25 Fe1 Mn1,33.9,45.0,12.7,10.1016/j.msea.2019.138039
205,Al1 Co1 Cr1 Cu1 Fe1 Ni1,24.0,18.0,12.6,10.1016/j.msea.2008.08.025
12,Co1 Fe1 Mn1 Ni1,41.0,41.7,12.5,10.1016/j.actamat.2014.08.026
126,Al0.38 Co1 Cr1 Fe1 Mn1 Ni1,45.0,43.9,12.5,10.1016/j.actamat.2013.09.037
1134,Fe1 Mo1 Nb1 Ti1 V1,1.7,6.5,12.4,10.1007/s40195-019-00935-x
264,Al1 Mo0.5 Nb1 Ta0.5 Ti1 Zr1,50.0,46.8,12.4,10.1007/s11837-014-1066-0
742,Al1 Co1 Cr1 Cu1 Fe1 Ni1,0.2,5.3,12.4,10.1016/j.msea.2011.11.045
565,Hf1 Nb1 Ta1 Zr1,21.6,15.2,12.4,10.1016/j.actamat.2016.01.018
346,Mo1 Nb1 Ta1 V1 W1,40.0,35.6,12.3,10.1016/j.intermet.2011.01.004
806,C0.5 Co1 Cr1 Fe1 Mn1 Ni1,40.3,37.3,12.3,10.1016/j.msea.2019.01.050
1404,Co1 Cr1 Fe1 Mn0.2 Ni1 Pd1,50.0,48.6,12.3,10.3390/e21030288
677,Al0.343 Co0.514 Cr0.514 Fe1 Ni0.514,30.2,23.5,12.2,10.1016/j.scriptamat.2016.04.014
722,Cr1 Fe1 Ni1 V0.5 W1,7.3,9.9,12.1,10.1007/s11665-015-1767-8
534,Hf1 Nb1 Si0.5 Ti1 V1 Zr1,50.0,46.7,12.1,10.4028/www.scientific.net/MSF.849.76
1313,Mo1 Nb1 Si0.75 Ta1 W1,22.7,23.9,12.1,10.1007/s10853-019-03567-9
1028,Al1 Cr1 Cu1 Fe1 Ni1,35.0,32.3,12.0,10.1016/j.jallcom.2019.01.341
1082,Al0.278 Co0.694 Cr0.222 Fe0.417 Ni1 Ti0.167,34.0,19.6,11.9,10.3390/e21020169
1077,Al0.278 Co0.694 Cr0.222 Fe0.417 Ni1 Ti0.167,8.0,19.6,11.9,10.3390/e21020169
1113,Hf1 Nb1 Ta1 Ti1 W1 Zr1,26.3,25.6,11.8,10.1016/j.jallcom.2019.06.138
755,Al0.1 Co1 Cr1 Fe1 Ni1,42.4,19.2,11.8,10.1016/j.actamat.2018.12.012
753,Al0.1 Co1 Cr1 Fe1 Ni1,1.2,19.2,11.8,10.1016/j.actamat.2018.12.012
1027,Al1 Cr1 Cu1 Fe1 Ni1,35.0,30.1,11.8,10.1016/j.jallcom.2019.01.341
752,Al0.1 Co1 Cr1 Fe1 Ni1,1.5,19.2,11.8,10.1016/j.actamat.2018.12.012
309,C0.3 Hf0.5 Mo0.5 Nb1 Ti1 Zr1,33.0,28.7,11.8,10.1016/j.intermet.2015.09.011
754,Al0.1 Co1 Cr1 Fe1 Ni1,30.3,19.2,11.8,10.1016/j.actamat.2018.12.012
324,Hf1 Mo1 Nb1 Ti1 Zr1,50.0,46.9,11.7,10.1016/j.matdes.2015.05.019
1026,Al1 Cr1 Cu1 Fe1 Ni1,17.0,21.3,11.7,10.1016/j.jallcom.2019.01.341
114,Al0.667 Co0.667 Cr0.667 Fe0.667 Ni0.667 Ti1,6.6,8.9,11.7,10.1063/1.27345
250,Al0.214 Nb0.714 Ta0.571 Ti1 V0.143 Zr0.929,5.0,8.0,11.7,10.1007/s11837-014-1066-0
170,Co1 Cr1 Cu1 Fe1 Ni1 Ti0.5,22.0,18.3,11.7,10.1016/j.intermet.2006.08.005
674,Al0.343 Co0.514 Cr0.514 Fe1 Ni0.514,7.9,11.6,11.7,10.1016/j.scriptamat.2016.04.014
1483,Hf1 Mo1 Nb1 Ta1 Ti1,27.0,25.9,11.6,10.3390/e21010015
1450,Hf1 Nb1 Ta1 Ti1 Zr1,12.3,13.6,11.6,10.3390/e21020114
476,Cr1 Ta1 Ti0.3 V1 W1,1.5,4.4,11.4,10.1016/j.matchemphys.2017.06.054
651,Al0.304 Co1 Cr1 Fe1 Ni1,58.0,53.5,11.4,10.1016/j.jallcom.2008.12.088
398,Al0.053 Cu1 Mn1 Ni1,45.0,47.1,11.3,10.1016/j.jallcom.2015.07.285
271,Al0.75 Hf1 Nb1 Ta1 Ti1 Zr1,30.0,28.8,11.3,10.1016/j.jallcom.2014.11.064
1455,Nb1 Ta0.667 Ti0.667 Zr0.333,0.33,5.7,11.3,10.3390/e21020114
1482,Hf1 Mo1 Nb1 Ta1 Zr1,16.0,18.3,11.3,10.3390/e21010015
1375,Al0.5 Cr1 Fe1 Mn1 Ni1,50.0,48.1,11.3,10.1016/j.msea.2019.04.104
839,Al0.544 C0.001 Co0.69 Fe1 Ni0.69,32.6,27.0,11.2,10.1016/j.scriptamat.2018.09.008
253,Al0.214 Nb0.714 Ta0.714 Ti1 Zr0.929,5.0,7.8,11.2,10.1007/s11837-014-1066-0
130,Al0.62 Co1 Cr1 Fe1 Mn1 Ni1,5.0,10.1,11.2,10.1016/j.actamat.2013.09.037
809,Co1 Cr0.588 Fe0.176 Mo0.176 Ni1,14.0,39.5,11.1,10.1016/j.ijplas.2018.10.005
812,Co1 Cr0.588 Fe0.176 Mo0.176 Ni1,42.0,39.5,11.1,10.1016/j.ijplas.2018.10.005
813,Co1 Cr0.588 Fe0.176 Mo0.176 Ni1,63.0,39.5,11.1,10.1016/j.ijplas.2018.10.005
814,Co1 Cr0.588 Fe0.176 Mo0.176 Ni1,82.0,39.5,11.1,10.1016/j.ijplas.2018.10.005
811,Co1 Cr0.588 Fe0.176 Mo0.176 Ni1,36.0,39.5,11.1,10.1016/j.ijplas.2018.10.005
808,Co1 Cr0.588 Fe0.176 Mo0.176 Ni1,8.0,39.5,11.1,10.1016/j.ijplas.2018.10.005
810,Co1 Cr0.588 Fe0.176 Mo0.176 Ni1,32.0,39.5,11.1,10.1016/j.ijplas.2018.10.005
1376,Al0.6 Cr1 Fe1 Mn1 Ni1,53.0,50.8,11.0,10.1016/j.msea.2019.04.104
259,Al0.333 Nb0.667 Ta0.533 Ti1 V0.133 Zr0.667,5.0,7.9,11.0,10.1007/s11837-014-1066-0
1419,Co0.2 Cu0.2 Fe0.2 Nb1 Ni0.2,37.6,32.5,10.9,10.1557/jmr.2019.36
1293,Mo1 Nb1 Ta1 W1,7.5,8.8,10.9,10.1007/s10853-019-03567-9
291,Cr1 Nb1 Ti1 V1 Zr1,3.0,6.1,10.9,10.1016/j.msea.2012.12.018
685,Co1 Cr1 Fe1 Ni1,58.9,57.3,10.9,10.1016/j.actamat.2016.06.063
730,Co1 Cr1 Fe1 Ni1,83.0,77.9,10.9,10.1016/j.jallcom.2013.12.210
21,Co1 Cr1 Fe1 Ni1,48.0,57.3,10.9,10.1016/j.intermet.2015.01.004
678,Co1 Cr0.429 Fe0.571 Mo0.286 Ni0.571,21.9,25.9,10.9,10.1016/j.scriptamat.2017.05.019
1129,Co1 Cr1 Fe1 Ni1,80.0,77.9,10.9,10.1016/j.intermet.2019.106550
310,Hf1 Mo0.25 Nb1 Ta1 Ti1 Zr1,50.0,47.4,10.8,10.1016/j.matlet.2016.03.133
474,Cr1 Ta1 Ti0.17 V1 W1,1.5,4.0,10.8,10.1016/j.matchemphys.2017.06.054
1422,Co0.067 Cu0.067 Fe0.067 Nb1 Ni0.067,12.6,16.5,10.7,10.1557/jmr.2019.36
537,Hf1 Nb1 Si0.5 Ti1 V1 Zr1,50.0,47.6,10.6,10.4028/www.scientific.net/MSF.849.76
323,Hf1 Mo1 Nb1 Ti1 Zr1,9.0,12.2,10.6,10.1016/j.matdes.2015.05.019
171,Co1 Cr1 Cu1 Fe1 Ni1 Ti0.8,3.0,6.3,10.5,10.1016/j.intermet.2006.08.005
129,Al0.56 Co1 Cr1 Fe1 Mn1 Ni1,16.0,17.4,10.5,10.1016/j.actamat.2013.09.037
653,Al0.304 Co1 Cr1 Fe1 Ni1,44.0,49.2,10.4,10.1016/j.jallcom.2008.12.088
652,Al0.304 Co1 Cr1 Fe1 Ni1,44.0,49.2,10.4,10.1016/j.jallcom.2008.12.088
426,Al1 Cr1 Mo1 Nb1 Ti1,24.0,20.3,10.3,10.1016/j.jallcom.2015.11.050
265,Al1 Mo0.5 Nb1 Ta0.5 Ti1 Zr1,50.0,47.8,10.3,10.1007/s11837-014-1066-0
1377,Al0.7 Cr1 Fe1 Mn1 Ni1,55.0,52.4,10.3,10.1016/j.msea.2019.04.104
1434,Hf1 Sc1 Ti1 Y1 Zr1,15.7,18.7,10.1,10.1007/s00339-019-2484-1
1114,Hf1 Mo1 Nb1 Ta1 Ti1 W1 Zr1,15.5,18.1,10.0,10.1016/j.jallcom.2019.06.138
1094,Al0.667 Co0.833 Cr0.833 Fe0.833 Ni0.833 Ti1,3.15,6.0,9.9,10.1016/j.jallcom.2019.07.100
128,Al0.49 Co1 Cr1 Fe1 Mn1 Ni1,29.0,27.0,9.9,10.1016/j.actamat.2013.09.037
467,Cr1 Hf1 Nb1 Ti1 Zr1,3.0,6.1,9.9,10.1016/j.ijrmhm.2014.07.009
127,Al0.43 Co1 Cr1 Fe1 Mn1 Ni1,35.0,33.3,9.9,10.1016/j.actamat.2013.09.037
1444,Co1 Cr1 Cu1 Fe1 Ni1 V0.136,50.2,46.8,9.8,10.1007/s11665-018-3837-1
471,Hf1 Nb1 Ti1 V1 Zr1,30.0,30.1,9.8,10.1016/j.ijrmhm.2014.07.009
1441,Co1 Cr1 Cu1 Fe1 Ni1,50.2,49.5,9.7,10.1007/s11665-018-3837-1
330,Hf1 Nb1 Si0.5 Ti1 V1,11.0,12.9,9.7,10.1016/j.matlet.2016.03.092
377,Mo0.333 Nb0.333 Ti0.333 V1 Zr0.333,24.0,24.8,9.6,10.1007/s11837-012-0366-5
1237,Hf0.25 Ti1 V0.5 Zr0.5,50.0,47.7,9.6,10.1007/s40195-019-00921-3
1432,Hf1 Sc1 Ti1 Zr1,21.9,21.8,9.6,10.1007/s00339-019-2484-1
1420,Co0.133 Cu0.133 Fe0.133 Nb1 Ni0.133,31.7,28.3,9.6,10.1557/jmr.2019.36
896,Co0.986 Cr0.952 Fe0.933 Mn0.914 Ni1,1.1,20.3,9.5,10.1016/j.msea.2019.01.112
898,Co0.986 Cr0.952 Fe0.933 Mn0.914 Ni1,31.7,20.3,9.5,10.1016/j.msea.2019.01.112
1068,Mo1 Nb1 Re0.5 W1,10.4,11.5,9.5,10.1016/j.jallcom.2018.11.111
901,Co0.986 Cr0.952 Fe0.933 Mn0.914 Ni1,1.5,20.3,9.5,10.1016/j.msea.2019.01.112
900,Co0.986 Cr0.952 Fe0.933 Mn0.914 Ni1,46.2,20.3,9.5,10.1016/j.msea.2019.01.112
899,Co0.986 Cr0.952 Fe0.933 Mn0.914 Ni1,40.2,20.3,9.5,10.1016/j.msea.2019.01.112
897,Co0.986 Cr0.952 Fe0.933 Mn0.914 Ni1,1.8,20.3,9.5,10.1016/j.msea.2019.01.112
425,Al1 Cr1 Mo1 Nb1 Ti1,15.0,15.8,9.5,10.1016/j.jallcom.2015.11.050
339,Mo1 Nb1 Ta1 V1,21.0,16.6,9.5,10.3390/e18050189
1481,Hf1 Mo1 Nb1 Ti1 Zr1,20.0,16.0,9.4,10.3390/e21010015
614,Al0.3 Co1 Cr1 Fe1 Ni1,25.0,30.3,9.4,10.1016/j.scriptamat.2018.08.048
1089,Al1 Co0.5 Cr0.5 Fe0.5 Ni0.5,9.98,13.6,9.4,10.1016/j.jallcom.2019.07.100
1407,Co1 Cr1 Fe1 Mn0.8 Ni1 Pd1,35.0,37.8,9.4,10.3390/e21030288
327,Hf1 Mo1 Nb1 Ti1 Zr1,10.0,16.0,9.4,10.1016/j.matdes.2015.05.019
472,Hf1 Nb1 Ti1 V1 Zr1,29.6,30.8,9.4,10.1016/j.ijrmhm.2014.07.009
799,Al0.3 Co1 Cr1 Fe1 Ni1,65.0,30.3,9.4,10.1016/j.scriptamat.2018.10.023
800,Al0.3 Co1 Cr1 Fe1 Ni1,45.0,30.3,9.4,10.1016/j.scriptamat.2018.10.023
801,Al0.3 Co1 Cr1 Fe1 Ni1,35.0,30.3,9.4,10.1016/j.scriptamat.2018.10.023
838,Al0.3 Co1 Cr1 Fe1 Ni1,65.0,30.3,9.4,10.1016/j.actamat.2018.12.010
680,Co1 Cr0.429 Fe0.571 Mo0.286 Ni0.571,14.9,26.8,9.4,10.1016/j.scriptamat.2017.05.019
681,Co1 Cr0.429 Fe0.571 Mo0.286 Ni0.571,18.3,26.8,9.4,10.1016/j.scriptamat.2017.05.019
682,Co1 Cr0.429 Fe0.571 Mo0.286 Ni0.571,25.4,26.8,9.4,10.1016/j.scriptamat.2017.05.019
683,Co1 Cr0.429 Fe0.571 Mo0.286 Ni0.571,28.2,26.8,9.4,10.1016/j.scriptamat.2017.05.019
684,Co1 Cr0.429 Fe0.571 Mo0.286 Ni0.571,62.4,26.8,9.4,10.1016/j.scriptamat.2017.05.019
837,Al0.3 Co1 Cr1 Fe1 Ni1,32.0,30.3,9.4,10.1016/j.actamat.2018.12.010
679,Co1 Cr0.429 Fe0.571 Mo0.286 Ni0.571,12.1,26.8,9.4,10.1016/j.scriptamat.2017.05.019
802,Al0.3 Co1 Cr1 Fe1 Ni1,7.0,30.3,9.4,10.1016/j.scriptamat.2018.10.023
803,Al0.3 Co1 Cr1 Fe1 Ni1,5.0,30.3,9.4,10.1016/j.scriptamat.2018.10.023
696,Co1 Cr1 Fe1 Ni1,70.0,69.2,9.3,10.1016/j.actamat.2015.08.076
988,Co1 Cr1 Ni1,68.0,58.0,9.3,10.1016/j.jmst.2018.12.002
990,Co1 Cr1 Ni1,48.0,58.0,9.3,10.1016/j.jmst.2018.12.002
272,Al1 Hf1 Nb1 Ta1 Ti1 Zr1,21.0,22.7,9.2,10.1016/j.jallcom.2014.11.064
687,Co1 Cr1 Fe1 Mo0.208 Ni1,55.1,52.3,9.2,10.1016/j.actamat.2016.06.063
294,Cr1 Nb1 Ti1 V1 Zr1,50.0,48.2,9.2,10.1016/j.msea.2012.12.018
378,Mo1 Nb1 Ti1 Zr1,34.0,30.7,9.1,10.1007/s11837-012-0366-5
713,Al0.885 Cr1 Fe1 Ni1,37.1,33.5,9.1,10.1016/j.msea.2016.11.019
278,Mo1 Nb1 Ti1 V1,26.0,24.6,9.1,10.3390/e16020870
735,Al0.108 Co0.514 Cr0.514 Cu0.108 Fe0.514 Ni1,32.0,31.3,9.1,10.1016/j.msea.2017.04.111
734,Al0.108 Co0.514 Cr0.514 Cu0.108 Fe0.514 Ni1,30.0,31.3,9.1,10.1016/j.msea.2017.04.111
1452,Nb1 Ta1 Ti1,18.5,17.5,9.1,10.3390/e21020114
760,Al0.364 Cr0.455 Fe0.455 Ni1,12.7,15.5,9.1,10.1016/j.jallcom.2018.08.176
300,Nb0.5 Ti0.5 V1 Zr0.5,50.0,48.4,9.0,10.1016/j.msea.2012.12.018
1433,Hf1 Ti1 Y1 Zr1,17.7,18.5,9.0,10.1007/s00339-019-2484-1
349,Mo1 Nb1 Ta1 W1,40.0,37.9,9.0,10.1016/j.intermet.2011.01.004
113,Al1 Co1 Cr1 Fe1 Ni1 Ti0.5,24.4,19.3,8.9,10.1063/1.27345
744,Al1 Co1 Cr1 Fe1 Ni1,1.0,4.9,8.9,10.1016/j.msea.2015.08.078
1406,Co1 Cr1 Fe1 Mn0.6 Ni1 Pd1,42.0,42.7,8.8,10.3390/e21030288
1245,Hf0.25 Nb0.5 Ti1 V0.5 Zr0.5,50.0,48.1,8.8,10.1007/s40195-019-00921-3
1517,Al1 Nb1 Ti1 Zr1,17.8,14.8,8.8,10.1080/02670836.2018.1446267
740,Al0.5 Co1 Cr1 Cu1 Fe1 Ni1,5.0,13.6,8.7,10.1016/j.jallcom.2009.10.088
340,Mo1 Nb1 Ta1 V1 W1,2.0,7.1,8.7,10.1016/j.intermet.2011.01.004
297,Cr1 Nb1 Ti1 Zr1,50.0,48.7,8.7,10.1016/j.msea.2012.12.018
739,Al0.5 Co1 Cr1 Cu1 Fe1 Ni1,7.6,13.6,8.7,10.1016/j.actamat.2015.07.004
695,C0.02 Co1 Cr1 Fe1 Mn1 Ni1,28.0,22.6,8.7,10.1080/02670836.2017.1342367
741,Al0.5 Co1 Cr1 Cu1 Fe1 Ni1,27.0,13.6,8.7,10.1016/j.jallcom.2009.10.088
341,Mo1 Nb1 Ta1 V1 W1,13.0,14.4,8.7,10.1016/j.intermet.2011.01.004
320,Hf1 Mo1 Ta1 Ti1 Zr1,19.0,22.1,8.7,10.1016/j.intermet.2015.03.013
343,Mo1 Nb1 Ta1 V1 W1,19.0,18.0,8.7,10.1016/j.intermet.2011.01.004
693,C0.02 Co1 Cr1 Fe1 Mn1 Ni1,15.0,22.6,8.7,10.1080/02670836.2017.1342367
989,Co1 Cr1 Ni1,60.0,58.4,8.6,10.1016/j.jmst.2018.12.002
169,Co1 Cr1 Cu1 Fe1 Ni1 Ti1,2.0,3.9,8.5,10.1016/j.intermet.2006.08.005
591,Nb1 Ta1 Ti1 V1 W1,20.0,17.3,8.5,10.1016/j.msea.2016.07.102
804,Al1 Co1 Cr1 Ni1,16.7,19.0,8.4,10.1016/j.jallcom.2018.11.057
393,Co1 Cr1 Cu1 Fe1 Mn1 Ni1 Ti1 V1,1.0,2.3,8.4,10.1016/j.msea.2006.11.049
1405,Co1 Cr1 Fe1 Mn0.4 Ni1 Pd1,46.0,45.9,8.4,10.3390/e21030288
266,Al0.667 Nb1 Ta0.333 Ti1 Zr0.333,4.0,6.8,8.3,10.1007/s11837-014-1066-0
1387,Co1 Cr1 Fe1 Mo0.2 Ni1,53.0,49.7,8.3,10.3390/e21050448
984,Co1 Fe1 Ni1,15.0,38.0,8.2,10.1016/j.intermet.2019.106477
1017,Co0.25 Cr1 Ni1,64.0,51.3,8.2,10.1016/j.actamat.2019.04.017
1016,Co0.25 Cr1 Ni1,58.0,51.3,8.2,10.1016/j.actamat.2019.04.017
464,Cr1 Hf1 Nb1 Ti1 Zr1,4.2,5.6,8.2,10.1016/j.ijrmhm.2014.07.009
1014,Co0.25 Cr1 Ni1,36.0,51.3,8.2,10.1016/j.actamat.2019.04.017
985,Co1 Fe1 Ni1,51.0,38.0,8.2,10.1016/j.intermet.2019.106477
424,Al1 Cr1 Mo1 Nb1 Ti1,2.0,5.6,8.2,10.1016/j.jallcom.2015.11.050
1015,Co0.25 Cr1 Ni1,46.0,51.3,8.2,10.1016/j.actamat.2019.04.017
13,Co1 Fe1 Ni1,31.0,38.0,8.2,10.1016/j.actamat.2014.08.026
986,Co1 Fe1 Ni1,47.0,38.0,8.2,10.1016/j.intermet.2019.106477
1004,Co1 Mn1 Ni1,62.5,43.2,8.2,10.1016/j.actamat.2019.04.017
1003,Co1 Mn1 Ni1,50.5,43.2,8.2,10.1016/j.actamat.2019.04.017
1002,Co1 Mn1 Ni1,24.0,43.2,8.2,10.1016/j.actamat.2019.04.017
1001,Co1 Mn1 Ni1,40.0,43.2,8.2,10.1016/j.actamat.2019.04.017
376,Mo0.5 Nb0.5 Ti0.5 V1 Zr0.5,23.0,23.9,8.2,10.1007/s11837-012-0366-5
987,Co1 Fe1 Ni1,44.5,38.0,8.2,10.1016/j.intermet.2019.106477
14,Co1 Mn1 Ni1,38.0,43.2,8.2,10.1016/j.actamat.2014.08.026
1132,Cr1 Fe1 Mo1 Nb1 V1,2.7,4.5,8.1,10.1007/s40195-019-00935-x
750,Co1 Cr1 Fe1 Ni1 Ti0.2,36.0,38.1,8.1,10.1016/j.actamat.2018.11.049
657,Al1 Co1 Cr1 Fe1 Ni1,1.0,4.4,8.1,10.1016/j.jallcom.2017.03.307
539,Hf1 Nb1 Si0.5 Ti1 V1 Zr1,16.8,16.2,8.1,10.4028/www.scientific.net/MSF.849.76
1421,Co0.086 Cu0.086 Fe0.086 Nb1 Ni0.086,18.3,19.2,8.0,10.1557/jmr.2019.36
1369,Al1 Co1 Cu1 Fe1 Ni0.5,13.7,15.3,8.0,10.1016/j.jmst.2018.12.014
260,Al0.333 Nb0.667 Ta0.533 Ti1 V0.133 Zr0.667,50.0,48.8,7.9,10.1007/s11837-014-1066-0
783,Co1 Cr1 Fe1 Ni1,63.0,64.8,7.9,10.1007/s40843-018-9373-y
287,Cr1 Mo0.5 Nb1 Ta0.5 Ti1 Zr1,5.0,6.2,7.8,10.1016/j.msea.2011.09.033
1371,Al1 Co1 Cu1 Fe1 Ni1,24.5,22.5,7.8,10.1016/j.jmst.2018.12.014
1049,Co0.327 Cr0.227 Fe1 Mo0.136 Ni0.127,38.3,52.7,7.8,10.1016/j.jallcom.2018.12.040
1055,Co0.327 Cr0.227 Fe1 Mo0.136 Ni0.127,63.2,52.7,7.8,10.1016/j.jallcom.2018.12.040
1053,Co0.327 Cr0.227 Fe1 Mo0.136 Ni0.127,59.3,52.7,7.8,10.1016/j.jallcom.2018.12.040
244,Al1 Li0.062 Mg0.062 Sn0.062 Zn0.062,16.0,15.8,7.8,10.1007/s11837-015-1402-z
1051,Co0.327 Cr0.227 Fe1 Mo0.136 Ni0.127,48.1,52.7,7.8,10.1016/j.jallcom.2018.12.040
536,Hf1 Nb1 Si0.5 Ti1 V1 Zr1,9.5,12.4,7.8,10.4028/www.scientific.net/MSF.849.76
1451,Nb1 Ta1 Ti1 Zr1,6.4,7.4,7.8,10.3390/e21020114
1054,Co0.318 Cr0.227 Fe1 Mo0.091 Ni0.182,87.2,77.4,7.7,10.1016/j.jallcom.2018.12.040
1052,Co0.318 Cr0.227 Fe1 Mo0.091 Ni0.182,86.6,77.4,7.7,10.1016/j.jallcom.2018.12.040
1050,Co0.318 Cr0.227 Fe1 Mo0.091 Ni0.182,77.5,77.4,7.7,10.1016/j.jallcom.2018.12.040
1048,Co0.318 Cr0.227 Fe1 Mo0.091 Ni0.182,61.6,77.4,7.7,10.1016/j.jallcom.2018.12.040
758,Al0.5 Cr0.5 Fe0.5 Ni1,6.4,9.1,7.7,10.1016/j.jallcom.2018.08.176
316,Hf1 Mo1 Nb1 Ta1 Ti1 Zr1,23.0,23.9,7.7,10.1016/j.intermet.2015.03.013
634,Co0.2 Cr0.2 Fe1 Mn0.6,63.0,57.5,7.5,10.1016/j.actamat.2017.03.069
1081,Al0.278 Co0.694 Cr0.222 Fe0.417 Ni1 Ti0.167,20.0,13.6,7.5,10.3390/e21020169
1115,Hf1 Nb1 Ta1 Ti1 W1 Zr1,35.0,33.1,7.5,10.1016/j.jallcom.2019.06.138
632,Co0.2 Cr0.2 Fe1 Mn0.6,75.0,57.5,7.5,10.1016/j.actamat.2017.03.069
633,Co0.2 Cr0.2 Fe1 Mn0.6,65.0,57.5,7.5,10.1016/j.actamat.2017.03.069
636,Co0.2 Cr0.2 Fe1 Mn0.6,42.0,57.5,7.5,10.1038/s41598-017-16509-9
635,Co0.2 Cr0.2 Fe1 Mn0.6,45.0,57.5,7.5,10.1038/s41598-017-16509-9
1516,Al1 Nb1 Ti1 Zr1,8.6,11.5,7.5,10.1080/02670836.2018.1446267
1076,Al0.278 Co0.694 Cr0.222 Fe0.417 Ni1 Ti0.167,6.0,13.6,7.5,10.3390/e21020169
1116,Hf1 Mo1 Nb1 Ta1 Ti1 W1 Zr1,35.0,33.1,7.4,10.1016/j.jallcom.2019.06.138
204,Al1 Co1 Cr1 Cu1 Fe1 Mn1 Ni1,15.0,15.0,7.4,10.1016/j.msea.2008.08.025
1072,C0.6 Mo1 Nb1 Re0.5 Ta0.6 W1,13.8,14.2,7.4,10.1016/j.jallcom.2018.11.111
1240,Hf0.25 Nb0.125 Ti1 V0.5 Zr0.5,50.0,48.7,7.3,10.1007/s40195-019-00921-3
334,Hf1 Nb1 Ta1 Ti1 Zr1,50.0,49.0,7.3,10.1007/s10853-012-6260-2
137,Co1 Cr1 Fe1 Mn1 Ni1,62.0,57.5,7.3,10.1016/j.actamat.2013.09.037
274,Al0.25 Mo1 Nb1 Ti1 V1,13.0,13.4,7.3,10.3390/e16020870
1029,Co1 Cr1 Fe1 Mn1 Ni1,57.0,57.5,7.3,10.1016/j.msea.2019.04.025
423,Al1 Cr1 Mo1 Nb1 Ti1,3.0,4.4,7.3,10.1016/j.jallcom.2015.11.050
207,Al1 Co1 Cr1 Cu1 Fe1 Ni1 V1,16.0,14.1,7.2,10.1016/j.msea.2008.08.025
592,Nb1 Ta1 V1 W1,12.0,11.7,7.2,10.1016/j.msea.2016.07.102
717,Al1 Cr0.767 Fe0.767 Ni0.767,24.7,24.4,7.2,10.1016/j.msea.2016.11.019
1370,Al1 Co1 Cu1 Fe1 Ni0.8,12.3,15.6,7.2,10.1016/j.jmst.2018.12.014
714,Al1 Cr1 Fe1 Ni1,34.6,32.3,7.2,10.1016/j.msea.2016.11.019
371,Mo1 Nb1 Ti1 V0.25 Zr1,30.0,30.1,7.2,10.1007/s11837-012-0366-5
541,Hf1 Nb1 Ta1 Ti1 Zr1,1.7,6.1,7.1,10.1016/j.actamat.2017.09.035
540,Hf1 Nb1 Ta1 Ti1 Zr1,7.9,6.1,7.1,10.1016/j.actamat.2017.09.035
542,Hf1 Nb1 Ta1 Ti1 Zr1,5.0,6.1,7.1,10.1016/j.actamat.2017.09.035
262,Al1 Mo0.5 Nb1 Ta0.5 Ti1 Zr1,10.0,11.1,7.0,10.1007/s11837-014-1066-0
631,Co0.2 Cr0.2 Fe1 Mn0.6,50.0,53.0,7.0,10.1016/j.actamat.2017.03.069
1262,Al1 Co1 Cr1 Fe1 Ni1,30.0,29.2,6.9,10.1016/j.matchar.2019.05.022
1261,Al1 Co1 Cr1 Fe1 Ni1,33.0,29.2,6.9,10.1016/j.matchar.2019.05.022
1244,Hf0.25 Nb0.375 Ti1 V0.5 Zr0.5,50.0,49.0,6.9,10.1007/s40195-019-00921-3
322,Hf1 Mo1 Ta1 Ti1 Zr1,30.0,30.6,6.9,10.1016/j.intermet.2015.03.013
329,Hf1 Nb1 Si0.5 Ti1 V1,50.0,48.9,6.9,10.1016/j.matlet.2016.03.092
257,Al0.4 Hf0.6 Nb1 Ta1 Ti1 Zr1,50.0,49.1,6.9,10.1007/s11837-014-1066-0
342,Mo1 Nb1 Ta1 V1 W1,17.0,16.7,6.9,10.1016/j.intermet.2011.01.004
1260,Al1 Co1 Cr1 Fe1 Ni1,30.0,29.2,6.9,10.1016/j.matchar.2019.05.022
784,Co1 Cr1 Fe1 Ni1,72.0,70.5,6.8,10.1007/s40843-018-9373-y
243,Al1 Cu0.062 Li0.062 Mg0.062 Zn0.062,17.0,15.6,6.8,10.1007/s11837-015-1402-z
1091,Al1 Co0.667 Cr0.667 Fe0.667 Ni0.667 Ti0.333,11.85,13.1,6.8,10.1016/j.jallcom.2019.07.100
785,Co1 Cr1 Fe1 Ni1,78.0,74.4,6.7,10.1007/s40843-018-9373-y
715,Al1 Cr0.889 Fe0.889 Ni0.889,27.1,27.8,6.7,10.1016/j.msea.2016.11.019
392,Al0.667 Co1 Cr1 Cu1 Fe1 Mn1 Ni1 Ti1 V1,1.0,3.2,6.7,10.1016/j.msea.2006.11.049
721,Al0.545 Cr0.545 Fe0.515 Ni1 Ti0.273,19.8,17.8,6.6,10.1016/j.jmst.2014.09.011
321,Hf1 Mo1 Ta1 Ti1 Zr1,30.0,30.1,6.6,10.1016/j.intermet.2015.03.013
375,Mo0.667 Nb0.667 Ti0.667 V1 Zr0.667,20.0,22.2,6.6,10.1007/s11837-012-0366-5
1443,Co1 Cr1 Cu1 Fe1 Ni1 V0.087,50.2,49.1,6.5,10.1007/s11665-018-3837-1
390,Al0.125 Co1 Cr1 Cu1 Fe1 Mn1 Ni1 Ti1 V1,1.0,2.2,6.5,10.1016/j.msea.2006.11.049
351,Mo1 Nb1 Ta1 W1,40.0,38.9,6.5,10.1016/j.intermet.2011.01.004
689,Co1 Cr1 Fe1 Mo0.304 Ni1,18.9,27.8,6.5,10.1016/j.actamat.2016.06.063
690,Co1 Cr1 Fe1 Mo0.304 Ni1,32.5,27.8,6.5,10.1016/j.actamat.2016.06.063
691,Co1 Cr1 Fe1 Mo0.304 Ni1,30.4,27.8,6.5,10.1016/j.actamat.2016.06.063
391,Al0.25 Co1 Cr1 Cu1 Fe1 Mn1 Ni1 Ti1 V1,2.0,2.5,6.4,10.1016/j.msea.2006.11.049
350,Mo1 Nb1 Ta1 W1,40.0,38.9,6.3,10.1016/j.intermet.2011.01.004
1294,Mo1 Nb1 Si0.25 Ta1 W1,16.5,14.6,6.3,10.1007/s10853-019-03567-9
716,Al1 Cr0.828 Fe0.828 Ni0.828,31.4,29.2,6.3,10.1016/j.msea.2016.11.019
1090,Al1 Co0.556 Cr0.556 Fe0.556 Ni0.556 Ti0.111,10.02,11.5,6.2,10.1016/j.jallcom.2019.07.100
1296,Mo1 Nb1 Si0.75 Ta1 W1,6.2,8.9,6.1,10.1007/s10853-019-03567-9
1133,Cr1 Fe1 Mo1 Nb1 Ti1,0.9,2.4,6.1,10.1007/s40195-019-00935-x
422,Al1 Cr1 Mo1 Nb1 Ti1,2.0,3.4,6.1,10.1016/j.jallcom.2015.11.050
675,Al0.343 Co0.514 Cr0.514 Fe1 Ni0.514,6.3,7.0,6.1,10.1016/j.scriptamat.2016.04.014
562,Hf1 Nb1 Ta1 Zr1,3.5,2.6,6.0,10.1016/j.actamat.2016.01.018
561,Hf1 Nb1 Ta1 Zr1,0.3,2.6,6.0,10.1016/j.actamat.2016.01.018
563,Hf1 Nb1 Ta1 Zr1,1.7,2.6,6.0,10.1016/j.actamat.2016.01.018
535,Hf1 Nb1 Si0.5 Ti1 V1 Zr1,50.0,49.2,6.0,10.4028/www.scientific.net/MSF.849.76
564,Hf1 Nb1 Ta1 Zr1,2.2,2.6,6.0,10.1016/j.actamat.2016.01.018
1442,Co1 Cr1 Cu1 Fe1 Ni1 V0.042,50.2,50.0,5.9,10.1007/s11665-018-3837-1
374,Mo1 Nb1 Ti1 V1 Zr1,26.0,25.6,5.9,10.1007/s11837-012-0366-5
759,Al0.429 Cr0.476 Fe0.476 Ni1,9.1,10.7,5.9,10.1016/j.jallcom.2018.08.176
1241,Hf0.25 Nb0.25 Ti1 V0.5 Zr0.5,50.0,49.2,5.8,10.1007/s40195-019-00921-3
720,Al0.545 Cr0.545 Fe0.515 Ni1 Ti0.273,16.3,16.9,5.8,10.1016/j.jmst.2014.09.011
676,Al0.343 Co0.514 Cr0.514 Fe1 Ni0.514,5.4,6.6,5.8,10.1016/j.scriptamat.2016.04.014
304,Nb1 Ti1 V1 Zr1,50.0,49.3,5.7,10.1016/j.msea.2012.12.018
477,Cr1 Ta1 V1 W1,1.5,2.9,5.7,10.1016/j.matchemphys.2017.06.054
772,Nb1 Ta1 Ti1 V1,28.3,27.8,5.7,10.1016/j.jallcom.2018.10.230
773,Nb1 Ta1 Ti1 V1,27.9,27.8,5.7,10.1016/j.jallcom.2018.10.230
786,Co1 Cr1 Fe1 Ni1,68.6,68.8,5.7,10.1007/s40843-018-9373-y
774,Nb1 Ta1 Ti1 V1,29.5,27.8,5.7,10.1016/j.jallcom.2018.10.230
372,Mo1 Nb1 Ti1 V0.5 Zr1,28.0,27.9,5.6,10.1007/s11837-012-0366-5
1092,Al1 Co0.833 Cr0.833 Fe0.833 Ni0.833 Ti0.667,7.73,9.1,5.6,10.1016/j.jallcom.2019.07.100
206,Al1 Co1 Cr1 Cu1 Fe1 Ni1 Ti1,9.0,8.9,5.5,10.1016/j.msea.2008.08.025
1253,Cr1 Cu1 Fe1 Mn1 Ni1,34.8,15.1,5.5,10.1016/j.matchar.2019.05.043
1252,Cr1 Cu1 Fe1 Mn1 Ni1,14.3,15.1,5.5,10.1016/j.matchar.2019.05.043
1251,Cr1 Cu1 Fe1 Mn1 Ni1,12.1,15.1,5.5,10.1016/j.matchar.2019.05.043
732,Al0.465 Co0.465 Cr0.465 Fe0.465 Ni1,16.5,17.6,5.5,10.1016/j.actamat.2016.11.016
1250,Cr1 Cu1 Fe1 Mn1 Ni1,11.4,15.1,5.5,10.1016/j.matchar.2019.05.043
1249,Cr1 Cu1 Fe1 Mn1 Ni1,10.7,15.1,5.5,10.1016/j.matchar.2019.05.043
1248,Cr1 Cu1 Fe1 Mn1 Ni1,4.3,15.1,5.5,10.1016/j.matchar.2019.05.043
1069,C0.2 Mo1 Nb1 Re0.5 Ta0.2 W1,12.1,12.6,5.4,10.1016/j.jallcom.2018.11.111
1246,Hf0.25 Nb0.5 Ti1 V0.5 Zr0.5,50.0,49.4,5.4,10.1007/s40195-019-00921-3
718,Al0.5 Cr0.5 Fe1 Ni1,17.0,17.4,5.4,10.1016/j.matlet.2016.01.096
766,Al0.476 Co0.476 Cr0.476 Fe0.476 Ni1,21.4,20.5,5.4,10.1038/s41467-019-08460-2
767,Al0.476 Co0.476 Cr0.476 Fe0.476 Ni1,25.0,20.5,5.4,10.1038/s41467-019-08460-2
768,Al0.476 Co0.476 Cr0.476 Fe0.476 Ni1,16.0,20.5,5.4,10.1038/s41467-019-08460-2
646,Al0.304 Co1 Cr1 Fe1 Ni1,43.0,53.5,5.3,10.1016/j.matdes.2017.02.072
648,Al0.304 Co1 Cr1 Fe1 Ni1,60.0,53.5,5.3,10.1016/j.matdes.2017.02.072
649,Al0.304 Co1 Cr1 Fe1 Ni1,45.0,53.5,5.3,10.1016/j.matdes.2017.02.072
1436,Al0.562 Co0.938 Cr0.312 Fe0.312 Ni1,16.7,17.8,5.3,10.1007/s00339-019-2506-z
664,Al0.515 Cr0.515 Fe1 Ni1,15.7,15.0,5.3,10.1016/j.matlet.2016.01.096
645,Al0.304 Co1 Cr1 Fe1 Ni1,65.0,53.5,5.3,10.1016/j.matdes.2017.02.072
647,Al0.304 Co1 Cr1 Fe1 Ni1,55.0,53.5,5.3,10.1016/j.matdes.2017.02.072
1383,Al1 Cu0.077 Mg0.077 Ni0.077 Si0.231 Zn0.077,1.0,2.9,5.3,10.1038/s41598-019-43329-w
1386,Al1 Cu0.077 Mg0.077 Si0.231 Zn0.077 Zr0.077,4.0,4.5,5.3,10.1038/s41598-019-43329-w
662,Al1 Co1 Cr1 Fe1 Ni1,20.0,9.4,5.2,10.1016/j.jallcom.2016.05.034
710,Al0.278 Co0.694 Cr0.222 Fe0.417 Ni1 Ti0.167,20.0,15.9,5.2,10.1007/s11837-015-1484-7
663,Al1 Co1 Cr1 Fe1 Ni1,0.8,2.8,5.2,10.1016/j.jallcom.2017.03.307
660,Al1 Co1 Cr1 Fe1 Ni1,2.7,9.4,5.2,10.1016/j.jallcom.2016.05.034
659,Al1 Co1 Cr1 Fe1 Ni1,1.6,9.4,5.2,10.1016/j.jallcom.2016.05.034
661,Al1 Co1 Cr1 Fe1 Ni1,13.0,9.4,5.2,10.1016/j.jallcom.2016.05.034
709,Al0.278 Co0.694 Cr0.222 Fe0.417 Ni1 Ti0.167,12.0,15.9,5.2,10.1007/s11837-015-1484-7
1384,Al1 Cr0.077 Cu0.077 Mg0.077 Si0.231 Zn0.077,6.0,5.5,5.1,10.1038/s41598-019-43329-w
787,Co1 Cr1 Fe1 Ni1,62.0,63.8,5.1,10.1007/s40843-018-9373-y
694,Co1 Cr1 Fe1 Mn1 Ni1,41.0,32.5,5.0,10.1080/02670836.2017.1342367
1323,Co1 Cr1 Fe1 Mn1 Ni1,43.15,32.5,5.0,10.1007/s11661-019-05231-y
756,Co1 Cr1 Fe1 Mn1 Ni1,1.1,32.5,5.0,10.1016/j.msea.2018.10.094
815,Co1 Cr1 Fe1 Mn1 Ni1,57.5,32.5,5.0,10.1016/j.jallcom.2018.08.115
1324,Co1 Cr1 Fe1 Mn1 Ni1,45.05,32.5,5.0,10.1007/s11661-019-05231-y
776,Co1 Cr1 Fe1 Mn1 Ni1,39.5,32.5,5.0,10.1016/j.jmst.2018.09.068
251,Al0.214 Nb0.714 Ta0.571 Ti1 V0.143 Zr0.929,50.0,49.5,5.0,10.1007/s11837-014-1066-0
980,Co1 Cr1 Fe1 Mn1 Ni1,63.0,32.5,5.0,10.1016/j.intermet.2019.106486
1322,Co1 Cr1 Fe1 Mn1 Ni1,42.55,32.5,5.0,10.1007/s11661-019-05231-y
1314,Co1 Cr1 Fe1 Mn1 Ni1,4.37,32.5,5.0,10.1007/s11661-019-05231-y
1321,Co1 Cr1 Fe1 Mn1 Ni1,38.7,32.5,5.0,10.1007/s11661-019-05231-y
1319,Co1 Cr1 Fe1 Mn1 Ni1,19.01,32.5,5.0,10.1007/s11661-019-05231-y
805,Co1 Cr1 Fe1 Mn1 Ni1,54.0,32.5,5.0,10.1016/j.msea.2019.01.050
1318,Co1 Cr1 Fe1 Mn1 Ni1,4.31,32.5,5.0,10.1007/s11661-019-05231-y
1317,Co1 Cr1 Fe1 Mn1 Ni1,3.15,32.5,5.0,10.1007/s11661-019-05231-y
692,Co1 Cr1 Fe1 Mn1 Ni1,50.0,32.5,5.0,10.1080/02670836.2017.1342367
1316,Co1 Cr1 Fe1 Mn1 Ni1,1.58,32.5,5.0,10.1007/s11661-019-05231-y
1315,Co1 Cr1 Fe1 Mn1 Ni1,1.16,32.5,5.0,10.1007/s11661-019-05231-y
1320,Co1 Cr1 Fe1 Mn1 Ni1,26.3,32.5,5.0,10.1007/s11661-019-05231-y
775,Co1 Cr1 Fe1 Mn1 Ni1,52.0,32.5,5.0,10.1016/j.jmst.2018.09.068
1036,Co1 Cr1 Fe1 Mn1 Ni1,62.0,32.5,5.0,10.1016/j.msea.2019.04.025
1032,Co1 Cr1 Fe1 Mn1 Ni1,8.0,32.5,5.0,10.1016/j.msea.2019.04.025
1030,Co1 Cr1 Fe1 Mn1 Ni1,6.0,32.5,5.0,10.1016/j.msea.2019.04.025
630,Co1 Cr1 Fe1 Mn1 Ni1,56.0,32.5,5.0,10.1016/j.actamat.2013.06.018
475,Cr1 Ta1 Ti0.3 V1 W1,1.5,2.6,5.0,10.1016/j.matchemphys.2017.06.054
1033,Co1 Cr1 Fe1 Mn1 Ni1,49.0,32.5,5.0,10.1016/j.msea.2019.04.025
1239,Hf0.25 Ti1 V0.5 Zr0.5,50.0,49.5,5.0,10.1007/s40195-019-00921-3
1031,Co1 Cr1 Fe1 Mn1 Ni1,2.0,32.5,5.0,10.1016/j.msea.2019.04.025
1034,Co1 Cr1 Fe1 Mn1 Ni1,47.0,32.5,5.0,10.1016/j.msea.2019.04.025
1035,Co1 Cr1 Fe1 Mn1 Ni1,59.0,32.5,5.0,10.1016/j.msea.2019.04.025
275,Al0.5 Mo1 Nb1 Ti1 V1,11.0,10.9,4.9,10.3390/e16020870
1070,C0.4 Mo1 Nb1 Re0.5 Ta0.4 W1,12.7,13.1,4.8,10.1016/j.jallcom.2018.11.111
788,Co1 Cr1 Fe1 Ni1,61.6,63.3,4.8,10.1007/s40843-018-9373-y
318,Hf1 Mo1 Nb1 Ta1 Ti1 Zr1,30.0,30.5,4.8,10.1016/j.intermet.2015.03.013
277,Al1 Mo1 Nb1 Ti1 V1,3.0,4.9,4.8,10.3390/e16020870
1238,Hf0.25 Ti1 V0.5 Zr0.5,50.0,49.5,4.7,10.1007/s40195-019-00921-3
254,Al0.214 Nb0.714 Ta0.714 Ti1 Zr0.929,50.0,49.6,4.6,10.1007/s11837-014-1066-0
658,Al1 Co1 Cr1 Fe1 Ni1,10.0,17.5,4.6,10.1016/j.jallcom.2016.05.034
1047,Al1 Co1 Cr1 Fe1 Ni1,23.0,17.5,4.6,10.1016/j.matchar.2019.03.006
317,Hf1 Mo1 Nb1 Ta1 Ti1 Zr1,30.0,30.2,4.6,10.1016/j.intermet.2015.03.013
719,Al1 Co1 Cr1 Fe1 Ni1,22.7,17.5,4.6,10.1016/j.matdes.2013.12.048
473,Cr1 Ta1 Ti0.17 V1 W1,1.5,2.5,4.6,10.1016/j.matchemphys.2017.06.054
1295,Mo1 Nb1 Si0.5 Ta1 W1,11.0,11.4,4.6,10.1007/s10853-019-03567-9
1046,Al1 Co1 Cr1 Fe1 Ni1,16.0,17.5,4.6,10.1016/j.matchar.2019.03.006
276,Al0.75 Mo1 Nb1 Ti1 V1,8.0,8.3,4.5,10.3390/e16020870
836,Co1 Ni1 V1,58.0,49.3,4.4,10.1002/adma.201807142
834,Co1 Ni1 V1,51.0,49.3,4.4,10.1002/adma.201807142
835,Co1 Ni1 V1,55.0,49.3,4.4,10.1002/adma.201807142
1093,Al1 Co1 Cr1 Fe1 Ni1 Ti1,6.18,8.4,4.4,10.1016/j.jallcom.2019.07.100
833,Co1 Ni1 V1,46.0,49.3,4.4,10.1002/adma.201807142
832,Co1 Ni1 V1,38.0,49.3,4.4,10.1002/adma.201807142
112,Al1 Co1 Cr1 Fe1 Ni1 Ti1,10.7,8.4,4.4,10.1063/1.27345
538,Hf1 Nb1 Si0.5 Ti1 V1 Zr1,50.0,49.6,4.3,10.4028/www.scientific.net/MSF.849.76
1385,Al1 Cu0.077 Mg0.077 Mn0.077 Si0.231 Zn0.077,2.0,2.8,4.3,10.1038/s41598-019-43329-w
1437,Al0.581 Co0.968 Cr0.323 Fe0.323 Mo0.032 Ni1,18.2,17.7,4.2,10.1007/s00339-019-2506-z
15,Fe1 Mn1 Ni1,36.0,32.5,4.2,10.1016/j.actamat.2014.08.026
995,Fe1 Mn1 Ni1,25.0,32.5,4.2,10.1016/j.actamat.2019.04.017
996,Fe1 Mn1 Ni1,25.0,32.5,4.2,10.1016/j.actamat.2019.04.017
997,Fe1 Mn1 Ni1,27.0,32.5,4.2,10.1016/j.actamat.2019.04.017
998,Fe1 Mn1 Ni1,26.0,32.5,4.2,10.1016/j.actamat.2019.04.017
999,Fe1 Mn1 Ni1,31.0,32.5,4.2,10.1016/j.actamat.2019.04.017
1000,Fe1 Mn1 Ni1,49.0,32.5,4.2,10.1016/j.actamat.2019.04.017
733,Al0.451 Co0.451 Cr0.451 Fe0.451 Ni1,20.0,18.9,4.1,10.1016/j.actamat.2016.11.016
373,Mo1 Nb1 Ti1 V0.75 Zr1,29.0,28.1,4.1,10.1007/s11837-012-0366-5
1071,C0.5 Mo1 Nb1 Re0.5 Ta0.5 W1,14.2,13.9,4.1,10.1016/j.jallcom.2018.11.111
1382,Al1 Cu0.077 Fe0.077 Mg0.077 Si0.231 Zn0.077,1.0,2.0,4.1,10.1038/s41598-019-43329-w
301,Nb0.5 Ti0.5 V1 Zr0.5,50.0,49.6,4.0,10.1016/j.msea.2012.12.018
326,Hf1 Mo1 Nb1 Ti1 Zr1,50.0,49.6,3.9,10.1016/j.matdes.2015.05.019
816,Cr1 Cu1 Fe1 Mn1 Ni1,14.5,13.6,3.8,10.1016/j.matchemphys.2018.09.033
1125,Nb1 Ti1 Zr1,51.0,50.5,3.8,10.1007/s12598-019-01310-6
731,Al0.511 Co0.511 Cr0.511 Fe0.511 Ni1,16.5,16.4,3.8,10.1016/j.actamat.2016.11.016
1439,Al0.6 Co1 Cr0.333 Fe0.333 Mo0.1 Ni0.967,14.5,15.4,3.8,10.1007/s00339-019-2506-z
1059,Cr1 Cu1 Fe1 Mn1 Ni1,14.0,13.6,3.8,10.1007/s11665-019-04003-4
1438,Al0.6 Co1 Cr0.333 Fe0.333 Mo0.067 Ni1,14.7,15.7,3.6,10.1007/s00339-019-2506-z
261,Al0.333 Nb0.667 Ta0.533 Ti1 V0.133 Zr0.667,50.0,49.7,3.4,10.1007/s11837-014-1066-0
325,Hf1 Mo1 Nb1 Ti1 Zr1,50.0,49.6,3.4,10.1016/j.matdes.2015.05.019
1247,Hf0.25 Nb0.5 Ti1 V0.5 Zr0.5,50.0,49.8,3.3,10.1007/s40195-019-00921-3
1292,Al0.5 Nb1 Ta0.5 Ti1 Zr1,12.0,11.3,3.3,10.1016/j.matlet.2019.03.075
1287,Al0.5 Nb1 Ta0.5 Ti1 Zr1,6.0,11.3,3.3,10.1016/j.matlet.2019.03.075
1289,Al0.5 Nb1 Ta0.5 Ti1 Zr1,8.0,11.3,3.3,10.1016/j.matlet.2019.03.075
1290,Al0.5 Nb1 Ta0.5 Ti1 Zr1,12.0,11.3,3.3,10.1016/j.matlet.2019.03.075
1291,Al0.5 Nb1 Ta0.5 Ti1 Zr1,20.0,11.3,3.3,10.1016/j.matlet.2019.03.075
1118,Hf1 Mo1 Nb1 Ta1 Ti1 W1 Zr1,35.0,35.1,3.2,10.1016/j.jallcom.2019.06.138
1086,Co0.286 Cr0.429 Fe1 Mn0.143 Ni0.714 V0.286,53.0,50.8,3.0,10.1016/j.msea.2018.12.077
1392,Co1 Cr1 Fe1 Mo0.2 Ni1,49.0,39.1,3.0,10.3390/e21050448
1397,Co1 Cr1 Fe1 Mo0.2 Ni1,32.0,39.1,3.0,10.3390/e21050448
1396,Co1 Cr1 Fe1 Mo0.2 Ni1,34.0,39.1,3.0,10.3390/e21050448
1395,Co1 Cr1 Fe1 Mo0.2 Ni1,36.0,39.1,3.0,10.3390/e21050448
1394,Co1 Cr1 Fe1 Mo0.2 Ni1,37.0,39.1,3.0,10.3390/e21050448
1393,Co1 Cr1 Fe1 Mo0.2 Ni1,47.0,39.1,3.0,10.3390/e21050448
1389,Co1 Cr1 Fe1 Mo0.2 Ni1,31.0,39.1,3.0,10.3390/e21050448
1391,Co1 Cr1 Fe1 Mo0.2 Ni1,52.0,39.1,3.0,10.3390/e21050448
1390,Co1 Cr1 Fe1 Mo0.2 Ni1,29.0,39.1,3.0,10.3390/e21050448
1388,Co1 Cr1 Fe1 Mo0.2 Ni1,43.0,39.1,3.0,10.3390/e21050448
1085,Co0.286 Cr0.429 Fe1 Mn0.143 Ni0.714 V0.286,51.0,50.8,3.0,10.1016/j.msea.2018.12.077
1084,Co0.286 Cr0.429 Fe1 Mn0.143 Ni0.714 V0.286,50.0,50.8,3.0,10.1016/j.msea.2018.12.077
1083,Co0.286 Cr0.429 Fe1 Mn0.143 Ni0.714 V0.286,49.0,50.8,3.0,10.1016/j.msea.2018.12.077
1087,Co0.286 Cr0.429 Fe1 Mn0.143 Ni0.714 V0.286,52.0,50.8,3.0,10.1016/j.msea.2018.12.077
1120,Hf1 Mo1 Nb1 Ta1 Ti1 W1 Zr1,35.0,35.2,2.9,10.1016/j.jallcom.2019.06.138
1117,Hf1 Nb1 Ta1 Ti1 W1 Zr1,35.0,34.9,2.8,10.1016/j.jallcom.2019.06.138
252,Al0.214 Nb0.714 Ta0.571 Ti1 V0.143 Zr0.929,50.0,49.9,2.8,10.1007/s11837-014-1066-0
255,Al0.214 Nb0.714 Ta0.714 Ti1 Zr0.929,50.0,49.9,2.8,10.1007/s11837-014-1066-0
298,Cr1 Nb1 Ti1 Zr1,50.0,49.9,2.7,10.1016/j.msea.2012.12.018
1119,Hf1 Nb1 Ta1 Ti1 W1 Zr1,35.0,34.9,2.7,10.1016/j.jallcom.2019.06.138
1080,Al0.278 Co0.694 Cr0.222 Fe0.417 Ni1 Ti0.167,17.0,13.5,2.6,10.3390/e21020169
711,Al0.278 Co0.694 Cr0.222 Fe0.417 Ni1 Ti0.167,18.0,13.5,2.6,10.1007/s11837-015-1484-7
712,Al0.278 Co0.694 Cr0.222 Fe0.417 Ni1 Ti0.167,11.0,13.5,2.6,10.1007/s11837-015-1484-7
1075,Al0.278 Co0.694 Cr0.222 Fe0.417 Ni1 Ti0.167,9.0,13.5,2.6,10.3390/e21020169
1242,Hf0.25 Nb0.25 Ti1 V0.5 Zr0.5,50.0,49.9,2.5,10.1007/s40195-019-00921-3
1243,Hf0.25 Nb0.25 Ti1 V0.5 Zr0.5,50.0,49.9,2.5,10.1007/s40195-019-00921-3
302,Nb0.5 Ti0.5 V1 Zr0.5,50.0,49.9,2.1,10.1016/j.msea.2012.12.018
1127,Nb1 Ti1 Zr1,51.0,50.8,2.0,10.1007/s12598-019-01310-6
543,Hf1 Nb1 Ta1 Ti1 Zr1,9.2,10.6,1.9,10.1016/j.actamat.2017.09.035
544,Hf1 Nb1 Ta1 Ti1 Zr1,4.7,10.6,1.9,10.1016/j.jallcom.2015.07.209
546,Hf1 Nb1 Ta1 Ti1 Zr1,9.7,10.6,1.9,10.1016/j.jallcom.2015.07.209
982,Hf1 Nb1 Ta1 Ti1 Zr1,12.6,10.6,1.9,10.1016/j.jallcom.2019.04.291
981,Hf1 Nb1 Ta1 Ti1 Zr1,15.7,10.6,1.9,10.1016/j.jallcom.2019.04.291
983,Hf1 Nb1 Ta1 Ti1 Zr1,10.8,10.6,1.9,10.1016/j.jallcom.2019.04.291
1074,Al0.278 Co0.694 Cr0.222 Fe0.417 Ni1 Ti0.167,11.0,11.9,1.7,10.3390/e21020169
258,Al0.4 Hf0.6 Nb1 Ta1 Ti1 Zr1,50.0,49.9,1.7,10.1007/s11837-014-1066-0
1079,Al0.278 Co0.694 Cr0.222 Fe0.417 Ni1 Ti0.167,12.0,11.9,1.7,10.3390/e21020169
1263,Cr1 Mo1 Nb1 Ti1 W1,10.0,5.8,1.3,10.1007/s11837-019-03432-9
1267,Cr1 Mo1 Nb1 Ti1 W1,5.0,5.8,1.3,10.1007/s11837-019-03432-9
1266,Cr1 Mo1 Nb1 Ti1 W1,4.3,5.8,1.3,10.1007/s11837-019-03432-9
1265,Cr1 Mo1 Nb1 Ti1 W1,4.85,5.8,1.3,10.1007/s11837-019-03432-9
1264,Cr1 Mo1 Nb1 Ti1 W1,4.8,5.8,1.3,10.1007/s11837-019-03432-9
817,Cr1 Cu1 Fe1 Mn1 Ni1,5.0,4.9,0.8,10.1016/j.matchemphys.2018.09.033
818,Cr1 Cu1 Fe1 Mn1 Ni1,5.2,4.9,0.8,10.1016/j.matchemphys.2018.09.033
821,Cr1 Cu1 Fe1 Mn1 Ni1,4.9,4.9,0.8,10.1016/j.matchemphys.2018.09.033
820,Cr1 Cu1 Fe1 Mn1 Ni1,4.6,4.9,0.8,10.1016/j.matchemphys.2018.09.033
819,Cr1 Cu1 Fe1 Mn1 Ni1,4.3,4.9,0.8,10.1016/j.matchemphys.2018.09.033
1128,Hf1 Nb1 Ti1 Zr1,51.0,50.9,0.4,10.1007/s12598-019-01310-6
1126,Hf1 Nb1 Ti1 Zr1,51.0,50.9,0.4,10.1007/s12598-019-01310-6
337,Hf1 Nb1 Ta1 Ti1 Zr1,50.0,50.0,0.2,10.1007/s10853-012-6260-2
336,Hf1 Nb1 Ta1 Ti1 Zr1,50.0,50.0,0.1,10.1007/s10853-012-6260-2
335,Hf1 Nb1 Ta1 Ti1 Zr1,50.0,50.0,0.1,10.1007/s10853-012-6260-2
352,Mo1 Nb1 Ta1 W1,40.0,40.0,0.0,10.1016/j.intermet.2011.01.004
353,Mo1 Nb1 Ta1 W1,40.0,40.0,0.0,10.1016/j.intermet.2011.01.004
305,Nb1 Ti1 V1 Zr1,50.0,50.0,0.0,10.1016/j.msea.2012.12.018
306,Nb1 Ti1 V1 Zr1,50.0,50.0,0.0,10.1016/j.msea.2012.12.018